t,ax,ay,az
0,-4.393800000000001,-4.882000000000001,-4.393800000000001
0.01,-3.4174,-3.9056,-4.882000000000001
0.02,-3.9056,-4.393800000000001,-4.882000000000001
0.03,-3.9056,-3.4174,-4.882000000000001
0.04,-3.9056,-4.393800000000001,-4.393800000000001
0.05,-4.393800000000001,-3.9056,-4.882000000000001
0.06,-0.4882,-5.8584000000000005,-2.4410000000000003
0.07,13.6696,-14.1578,7.8112
0.08,27.8274,-22.4572,16.5988
0.09,40.0324,-30.2684,26.3628
0.1,62.4896,-42.961600000000004,40.5206
0.11,64.9306,-43.938,41.0088
0.12,66.3952,-44.9144,41.9852
0.13,67.3716,-46.379000000000005,44.4262
0.14,69.3244,-47.3554,43.938
0.15,69.8126,-47.3554,45.4026
0.16,67.8598,-46.379000000000005,43.4498
0.17,63.466,-42.961600000000004,41.9852
0.18,62.001400000000004,-41.497,39.544200000000004
0.19,59.0722,-41.0088,37.5914
0.2,55.1666,-39.056000000000004,36.1268
0.21,55.1666,-38.5678,36.615
0.22,55.6548,-39.056000000000004,36.615
0.23,56.6312,-39.544200000000004,36.1268
0.24,57.119400000000006,-40.0324,36.1268
0.25,56.6312,-39.056000000000004,37.1032
0.26,57.119400000000006,-39.544200000000004,36.1268
0.27,57.119400000000006,-40.0324,37.5914
0.28,58.095800000000004,-40.0324,37.1032
0.29,57.607600000000005,-40.0324,36.615
0.3,58.095800000000004,-40.0324,38.0796
0.31,59.5604,-41.0088,38.0796
0.32,58.584,-39.056000000000004,37.1032
0.33,58.095800000000004,-41.0088,37.1032
0.34,58.584,-41.0088,38.5678
0.35000000000000003,59.0722,-40.5206,37.5914
0.36,58.584,-41.0088,38.0796
0.37,58.095800000000004,-41.497,38.5678
0.38,59.0722,-41.0088,39.056000000000004
0.39,59.0722,-41.0088,38.5678
0.4,59.5604,-41.497,39.056000000000004
0.41000000000000003,60.5368,-41.9852,39.544200000000004
0.42,60.5368,-41.9852,39.544200000000004
0.43,60.5368,-41.9852,39.544200000000004
0.44,61.025000000000006,-41.9852,39.544200000000004
0.45,60.5368,-41.0088,39.544200000000004
0.46,61.025000000000006,-41.497,39.544200000000004
0.47000000000000003,61.025000000000006,-42.961600000000004,39.544200000000004
0.48,61.025000000000006,-41.9852,40.5206
0.49,62.001400000000004,-42.473400000000005,39.544200000000004
0.5,62.001400000000004,-42.961600000000004,40.5206
0.51,61.513200000000005,-41.9852,40.5206
0.52,62.9778,-42.473400000000005,40.5206
0.53,62.001400000000004,-41.9852,40.5206
0.54,62.001400000000004,-42.961600000000004,39.544200000000004
0.55,62.9778,-42.473400000000005,40.0324
0.56,62.4896,-43.4498,41.497
0.5700000000000001,62.001400000000004,-42.473400000000005,40.5206
0.58,62.4896,-42.473400000000005,40.0324
0.59,62.001400000000004,-43.938,41.0088
0.6,62.9778,-43.938,41.497
0.61,62.9778,-43.938,41.0088
0.62,62.9778,-43.938,41.9852
0.63,62.9778,-44.4262,41.497
0.64,62.4896,-43.4498,42.473400000000005
0.65,62.9778,-43.4498,41.0088
0.66,63.466,-43.938,41.0088
0.67,62.4896,-43.4498,41.0088
0.68,62.001400000000004,-43.4498,41.0088
0.6900000000000001,62.9778,-42.961600000000004,41.9852
0.7000000000000001,63.9542,-43.4498,41.9852
0.71,63.9542,-44.4262,41.497
0.72,62.9778,-43.4498,42.473400000000005
0.73,63.9542,-43.938,41.9852
0.74,64.4424,-43.938,42.473400000000005
0.75,63.9542,-44.4262,41.9852
0.76,63.466,-43.938,41.9852
0.77,64.4424,-43.4498,41.9852
0.78,64.9306,-43.4498,42.961600000000004
0.79,64.4424,-44.4262,42.473400000000005
0.8,64.9306,-43.4498,41.9852
0.81,64.9306,-43.4498,42.961600000000004
0.8200000000000001,64.4424,-44.9144,42.961600000000004
0.8300000000000001,63.9542,-44.4262,42.473400000000005
0.84,64.9306,-43.938,42.473400000000005
0.85,65.907,-45.4026,41.9852
0.86,65.4188,-43.4498,42.473400000000005
0.87,65.4188,-44.9144,43.938
0.88,65.4188,-43.938,42.473400000000005
0.89,64.9306,-43.4498,43.4498
0.9,65.907,-44.4262,42.961600000000004
0.91,66.3952,-44.4262,42.473400000000005
0.92,65.4188,-43.938,43.4498
0.93,66.3952,-44.4262,43.4498
0.9400000000000001,65.4188,-44.9144,43.938
0.9500000000000001,66.3952,-43.938,42.473400000000005
0.96,65.907,-44.4262,43.4498
0.97,65.907,-44.4262,42.961600000000004
0.98,66.88340000000001,-44.4262,43.938
0.99,66.3952,-43.938,44.4262
1.0,66.88340000000001,-44.4262,43.938
1.01,66.88340000000001,-44.9144,43.4498
1.02,67.3716,-44.4262,43.938
1.03,66.88340000000001,-44.4262,43.4498
1.04,66.3952,-44.4262,43.4498
1.05,67.8598,-44.4262,43.938
1.06,66.88340000000001,-44.4262,43.938
1.07,67.8598,-44.4262,43.4498
1.08,67.3716,-44.4262,42.961600000000004
1.09,67.3716,-43.4498,43.938
1.1,66.88340000000001,-43.938,42.961600000000004
1.11,67.3716,-43.938,43.4498
1.12,67.8598,-44.9144,43.4498
1.1300000000000001,67.8598,-44.4262,42.961600000000004
1.1400000000000001,67.8598,-43.4498,42.473400000000005
1.1500000000000001,66.88340000000001,-43.938,42.961600000000004
1.16,68.348,-45.4026,43.4498
1.17,67.8598,-45.4026,41.9852
1.18,67.8598,-43.938,42.961600000000004
1.19,66.88340000000001,-44.4262,42.961600000000004
1.2,67.8598,-44.4262,41.9852
1.21,67.3716,-44.4262,42.473400000000005
1.22,66.88340000000001,-43.938,42.473400000000005
1.23,67.8598,-44.4262,42.473400000000005
1.24,66.3952,-44.4262,42.473400000000005
1.25,67.8598,-45.4026,42.473400000000005
1.26,67.8598,-44.4262,41.9852
1.27,67.3716,-44.9144,42.473400000000005
1.28,66.88340000000001,-45.4026,41.9852
1.29,67.8598,-44.4262,42.961600000000004
1.3,67.3716,-44.9144,42.473400000000005
1.31,67.3716,-44.9144,41.497
1.32,67.3716,-45.4026,42.473400000000005
1.33,66.3952,-45.8908,41.0088
1.34,67.3716,-43.938,42.961600000000004
1.35,66.88340000000001,-45.4026,42.473400000000005
1.36,67.8598,-44.9144,41.497
1.37,66.88340000000001,-44.4262,42.473400000000005
1.3800000000000001,67.3716,-44.9144,41.497
1.3900000000000001,67.3716,-45.8908,41.9852
1.4000000000000001,67.8598,-45.4026,42.961600000000004
1.41,66.88340000000001,-45.4026,41.497
1.42,66.88340000000001,-45.8908,41.9852
1.43,67.8598,-45.8908,41.0088
1.44,66.88340000000001,-44.9144,41.9852
1.45,67.8598,-45.4026,42.961600000000004
1.46,66.3952,-45.8908,41.9852
1.47,67.3716,-44.9144,41.9852
1.48,66.88340000000001,-44.4262,41.9852
1.49,66.88340000000001,-45.4026,41.9852
1.5,67.3716,-44.9144,41.9852
1.51,66.88340000000001,-46.379000000000005,41.9852
1.52,66.88340000000001,-45.4026,42.961600000000004
1.53,66.88340000000001,-45.4026,41.9852
1.54,66.88340000000001,-44.4262,42.473400000000005
1.55,66.3952,-44.9144,41.9852
1.56,66.88340000000001,-44.9144,41.9852
1.57,65.907,-44.9144,41.0088
1.58,65.907,-45.4026,41.0088
1.59,66.3952,-45.8908,41.9852
1.6,66.3952,-44.9144,41.497
1.61,66.88340000000001,-44.9144,41.9852
1.62,65.4188,-45.8908,41.0088
1.6300000000000001,64.9306,-45.8908,41.497
1.6400000000000001,65.907,-45.4026,41.0088
1.6500000000000001,65.4188,-45.4026,41.0088
1.6600000000000001,65.907,-45.8908,41.0088
1.67,65.4188,-45.8908,41.9852
1.68,65.4188,-45.8908,41.497
1.69,64.9306,-46.379000000000005,41.9852
1.7,64.4424,-45.4026,41.497
1.71,64.9306,-45.8908,41.497
1.72,64.4424,-45.4026,41.497
1.73,64.4424,-45.8908,41.497
1.74,64.4424,-44.4262,41.497
1.75,63.9542,-45.4026,41.497
1.76,62.9778,-44.9144,41.497
1.77,63.466,-43.4498,41.497
1.78,63.9542,-44.9144,41.9852
1.79,63.9542,-44.4262,42.473400000000005
1.8,63.466,-44.9144,42.473400000000005
1.81,63.466,-44.4262,41.9852
1.82,64.9306,-44.4262,41.497
1.83,64.4424,-44.4262,41.9852
1.84,63.9542,-44.9144,42.473400000000005
1.85,63.466,-43.4498,41.9852
1.86,64.4424,-43.938,41.9852
1.87,62.9778,-44.9144,41.9852
1.8800000000000001,63.466,-43.938,41.9852
1.8900000000000001,63.466,-43.938,41.497
1.9000000000000001,64.9306,-43.4498,41.0088
1.9100000000000001,63.466,-43.4498,41.0088
1.92,62.9778,-43.4498,41.9852
1.93,63.9542,-42.473400000000005,41.9852
1.94,63.466,-42.473400000000005,41.9852
1.95,63.466,-42.961600000000004,41.497
1.96,63.466,-41.9852,41.9852
1.97,62.4896,-42.961600000000004,41.0088
1.98,64.4424,-41.9852,41.497
1.99,63.9542,-42.473400000000005,41.0088
2.0,63.466,-41.9852,40.0324
2.0100000000000002,64.4424,-42.473400000000005,40.5206
2.02,63.466,-41.9852,40.0324
2.0300000000000002,63.466,-41.9852,39.544200000000004
2.04,62.9778,-41.9852,40.0324
2.05,62.9778,-41.9852,39.056000000000004
2.06,62.9778,-41.9852,40.0324
2.07,63.466,-42.473400000000005,39.056000000000004
2.08,62.9778,-41.9852,38.0796
2.09,62.4896,-42.473400000000005,38.5678
2.1,62.001400000000004,-42.473400000000005,39.056000000000004
2.11,62.001400000000004,-42.961600000000004,39.056000000000004
2.12,60.5368,-42.961600000000004,39.544200000000004
2.13,62.001400000000004,-42.961600000000004,38.0796
2.14,62.001400000000004,-42.961600000000004,39.056000000000004
2.15,61.513200000000005,-41.9852,38.5678
2.16,61.513200000000005,-42.473400000000005,39.056000000000004
2.17,62.001400000000004,-42.961600000000004,38.5678
2.18,61.513200000000005,-41.497,38.5678
2.19,61.025000000000006,-41.497,38.5678
2.2,60.0486,-41.497,38.5678
2.21,60.5368,-41.9852,39.056000000000004
2.22,61.025000000000006,-41.9852,39.056000000000004
2.23,59.0722,-42.961600000000004,38.5678
2.24,60.5368,-42.473400000000005,38.5678
2.25,60.0486,-41.9852,38.5678
2.2600000000000002,60.0486,-41.9852,37.5914
2.27,60.0486,-41.497,37.1032
2.2800000000000002,59.0722,-41.9852,39.544200000000004
2.29,59.5604,-42.473400000000005,39.056000000000004
2.3000000000000003,58.584,-41.9852,38.0796
2.31,59.0722,-41.497,38.0796
2.32,58.584,-41.0088,38.5678
2.33,58.584,-41.497,38.5678
2.34,58.584,-41.9852,39.056000000000004
2.35,58.584,-41.0088,38.0796
2.36,58.095800000000004,-41.0088,38.0796
2.37,58.584,-41.0088,38.0796
2.38,57.119400000000006,-40.5206,38.0796
2.39,58.095800000000004,-40.0324,37.5914
2.4,58.095800000000004,-40.5206,38.5678
2.41,57.607600000000005,-41.0088,37.1032
2.42,58.095800000000004,-41.0088,38.5678
2.43,57.607600000000005,-39.544200000000004,37.5914
2.44,58.095800000000004,-40.5206,37.5914
2.45,57.119400000000006,-39.544200000000004,37.5914
2.46,58.095800000000004,-39.544200000000004,37.5914
2.47,58.095800000000004,-39.056000000000004,37.5914
2.48,57.119400000000006,-40.0324,37.1032
2.49,57.119400000000006,-39.056000000000004,37.1032
2.5,57.607600000000005,-40.0324,37.1032
2.5100000000000002,57.607600000000005,-38.5678,36.1268
2.52,57.607600000000005,-38.5678,35.638600000000004
2.5300000000000002,58.095800000000004,-40.0324,36.1268
2.54,57.607600000000005,-39.056000000000004,36.615
2.5500000000000003,56.6312,-39.544200000000004,35.638600000000004
2.56,58.095800000000004,-39.544200000000004,36.1268
2.57,57.119400000000006,-39.544200000000004,36.1268
2.58,57.607600000000005,-40.0324,36.1268
2.59,56.6312,-40.0324,34.6622
2.6,55.1666,-40.0324,35.150400000000005
2.61,56.6312,-41.0088,36.1268
2.62,56.6312,-39.544200000000004,35.150400000000005
2.63,55.6548,-40.0324,35.638600000000004
2.64,56.143,-39.544200000000004,35.150400000000005
2.65,55.6548,-39.544200000000004,36.1268
2.66,56.6312,-38.5678,35.638600000000004
2.67,55.6548,-38.5678,36.1268
2.68,55.6548,-39.056000000000004,35.638600000000004
2.69,54.6784,-39.544200000000004,35.150400000000005
2.7,55.1666,-39.544200000000004,36.1268
2.71,55.1666,-39.544200000000004,36.1268
2.72,55.1666,-40.0324,35.638600000000004
2.73,54.6784,-39.544200000000004,35.638600000000004
2.74,55.1666,-39.544200000000004,36.1268
2.75,55.6548,-38.5678,37.1032
2.7600000000000002,54.190200000000004,-38.5678,36.615
2.77,54.190200000000004,-39.056000000000004,36.1268
2.7800000000000002,55.1666,-39.056000000000004,36.1268
2.79,54.190200000000004,-38.0796,35.150400000000005
2.8000000000000003,54.6784,-39.056000000000004,36.1268
2.81,54.6784,-38.5678,35.150400000000005
2.82,54.190200000000004,-38.0796,35.150400000000005
2.83,55.1666,-38.5678,35.638600000000004
2.84,54.6784,-37.5914,34.6622
2.85,55.1666,-39.056000000000004,35.638600000000004
2.86,53.702000000000005,-38.5678,35.638600000000004
2.87,53.702000000000005,-37.5914,36.1268
2.88,54.190200000000004,-38.0796,35.150400000000005
2.89,54.190200000000004,-37.5914,35.638600000000004
2.9,54.190200000000004,-37.1032,35.638600000000004
2.91,53.2138,-38.0796,35.638600000000004
2.92,54.190200000000004,-37.1032,33.6858
2.93,53.702000000000005,-37.5914,34.6622
2.94,54.190200000000004,-36.615,34.6622
2.95,53.702000000000005,-36.1268,33.6858
2.96,53.702000000000005,-36.615,33.1976
2.97,53.2138,-37.5914,33.6858
2.98,53.2138,-37.1032,32.7094
2.99,52.7256,-37.1032,33.1976
3.0,51.7492,-37.5914,34.174
3.0100000000000002,50.772800000000004,-36.1268,32.2212
3.02,49.796400000000006,-35.150400000000005,30.756600000000002
3.0300000000000002,47.3554,-34.6622,29.292
3.04,44.9144,-33.6858,28.803800000000003
3.0500000000000003,43.4498,-32.7094,27.8274
3.06,41.9852,-31.733,27.3392
3.0700000000000003,40.5206,-29.292,26.3628
3.08,39.056000000000004,-28.803800000000003,24.41
3.09,37.1032,-27.8274,23.433600000000002
3.1,35.150400000000005,-27.8274,22.9454
3.11,34.174,-26.851000000000003,21.969
3.12,31.733,-25.8746,20.5044
3.13,29.7802,-24.41,19.528000000000002
3.14,28.3156,-24.41,18.5516
3.15,25.8746,-22.4572,17.575200000000002
3.16,25.386400000000002,-20.9926,16.1106
3.17,22.4572,-21.480800000000002,15.1342
3.18,21.969,-20.0162,14.1578
3.19,20.5044,-18.0634,11.716800000000001
3.2,19.528000000000002,-17.575200000000002,11.2286
3.21,18.0634,-16.5988,10.740400000000001
3.22,16.1106,-16.5988,9.2758
3.23,14.1578,-15.1342,8.787600000000001
3.24,12.693200000000001,-13.6696,7.8112
3.25,11.2286,-12.693200000000001,5.8584000000000005
3.2600000000000002,10.2522,-10.2522,4.882000000000001
3.27,6.8348,-10.740400000000001,2.9292000000000002
3.2800000000000002,6.3466000000000005,-9.764000000000001,2.9292000000000002
3.29,4.882000000000001,-8.2994,0.4882
3.3000000000000003,3.9056,-6.3466000000000005,-0.9764
3.31,2.9292000000000002,-7.323,-1.4646000000000001
3.3200000000000003,1.4646000000000001,-6.8348,-1.4646000000000001
3.33,0.9764,-6.8348,-1.9528
3.34,-0.4882,-6.8348,-3.4174
3.35,-1.4646000000000001,-6.3466000000000005,-2.4410000000000003
3.36,-1.4646000000000001,-6.3466000000000005,-3.4174
3.37,-2.9292000000000002,-4.393800000000001,-3.4174
3.38,-4.393800000000001,-5.3702000000000005,-3.9056
3.39,-4.393800000000001,-3.9056,-4.393800000000001
3.4,-5.8584000000000005,-3.4174,-5.3702000000000005
3.41,-5.3702000000000005,-3.4174,-4.393800000000001
3.42,-5.8584000000000005,-3.4174,-4.882000000000001
3.43,-6.8348,-3.4174,-4.882000000000001
3.44,-6.8348,-3.4174,-5.3702000000000005
3.45,-6.8348,-3.4174,-5.8584000000000005
3.46,-7.323,-3.4174,-4.882000000000001
3.47,-8.787600000000001,-2.4410000000000003,-5.3702000000000005
3.48,-7.8112,-2.4410000000000003,-5.3702000000000005
3.49,-7.8112,-1.4646000000000001,-5.3702000000000005
3.5,-8.2994,-1.4646000000000001,-6.8348
3.5100000000000002,-8.787600000000001,-0.4882,-6.8348
3.52,-7.8112,-1.4646000000000001,-7.323
3.5300000000000002,-10.2522,-0.4882,-7.323
3.54,-8.787600000000001,-0.4882,-7.323
3.5500000000000003,-9.2758,-0.4882,-7.8112
3.56,-9.764000000000001,0.0,-7.323
3.5700000000000003,-9.2758,0.0,-8.2994
3.58,-10.2522,-0.4882,-8.2994
3.59,-10.2522,0.4882,-8.2994
3.6,-10.740400000000001,0.0,-8.787600000000001
3.61,-10.2522,0.0,-8.787600000000001
3.62,-10.2522,0.9764,-9.764000000000001
3.63,-11.716800000000001,0.9764,-10.2522
3.64,-11.2286,0.9764,-9.764000000000001
3.65,-11.716800000000001,1.4646000000000001,-11.716800000000001
3.66,-12.693200000000001,0.9764,-10.2522
3.67,-13.6696,1.4646000000000001,-10.2522
3.68,-13.6696,0.4882,-11.2286
3.69,-13.6696,1.4646000000000001,-10.2522
3.7,-14.1578,0.4882,-11.2286
3.71,-13.6696,0.4882,-11.716800000000001
3.72,-15.6224,1.4646000000000001,-10.740400000000001
3.73,-14.646,1.9528,-11.2286
3.74,-15.6224,1.4646000000000001,-11.2286
3.75,-15.6224,2.4410000000000003,-12.205
3.7600000000000002,-16.5988,1.9528,-11.716800000000001
3.77,-16.5988,2.9292000000000002,-12.205
3.7800000000000002,-16.5988,3.4174,-11.2286
3.79,-16.1106,2.4410000000000003,-11.716800000000001
3.8000000000000003,-17.575200000000002,3.9056,-12.693200000000001
3.81,-17.087,3.9056,-11.716800000000001
3.8200000000000003,-17.575200000000002,3.9056,-12.205
3.83,-18.5516,3.9056,-13.1814
3.84,-18.0634,4.393800000000001,-13.1814
3.85,-18.0634,5.3702000000000005,-13.6696
3.86,-18.5516,5.3702000000000005,-14.1578
3.87,-18.5516,4.882000000000001,-14.1578
3.88,-18.0634,4.882000000000001,-14.1578
3.89,-19.528000000000002,4.393800000000001,-14.646
3.9,-69.8126,69.8126,-69.8126
3.91,-19.528000000000002,4.882000000000001,-14.646
3.92,-19.528000000000002,4.882000000000001,-15.6224
3.93,-20.0162,4.882000000000001,-15.6224
3.94,-19.0398,4.882000000000001,-14.646
3.95,-18.5516,4.393800000000001,-15.6224
3.96,-18.5516,4.882000000000001,-14.1578
3.97,-19.0398,3.9056,-14.646
3.98,-19.528000000000002,4.393800000000001,-15.1342
3.99,-19.528000000000002,4.882000000000001,-14.646
4.0,-18.5516,3.4174,-15.6224
4.01,-18.5516,3.9056,-15.1342
4.0200000000000005,-19.0398,3.4174,-15.6224
4.03,-20.5044,4.393800000000001,-14.1578
4.04,-20.0162,3.9056,-14.646
4.05,-19.528000000000002,3.4174,-13.6696
4.0600000000000005,-19.0398,3.4174,-14.1578
4.07,-20.0162,4.393800000000001,-14.1578
4.08,-19.0398,4.393800000000001,-13.6696
4.09,-20.0162,4.882000000000001,-14.1578
4.1,-19.0398,3.9056,-13.6696
4.11,-19.528000000000002,4.393800000000001,-13.6696
4.12,-19.528000000000002,4.393800000000001,-13.6696
4.13,-19.528000000000002,4.393800000000001,-13.1814
4.14,-19.528000000000002,4.882000000000001,-13.1814
4.15,-19.528000000000002,3.9056,-13.6696
4.16,-20.0162,4.882000000000001,-14.646
4.17,-19.0398,4.393800000000001,-14.1578
4.18,-18.5516,5.3702000000000005,-13.1814
4.19,-20.5044,4.882000000000001,-14.646
4.2,-19.528000000000002,4.882000000000001,-14.1578
4.21,-19.0398,4.882000000000001,-14.646
4.22,-18.5516,4.393800000000001,-14.1578
4.23,-18.5516,4.393800000000001,-14.1578
4.24,-19.0398,3.9056,-14.646
4.25,-19.0398,4.882000000000001,-14.646
4.26,-19.0398,4.882000000000001,-14.1578
4.2700000000000005,-19.0398,4.882000000000001,-13.6696
4.28,-18.5516,4.393800000000001,-14.1578
4.29,-19.0398,2.9292000000000002,-14.1578
4.3,-19.0398,5.3702000000000005,-14.1578
4.3100000000000005,-18.0634,3.9056,-13.6696
4.32,-17.575200000000002,3.9056,-14.1578
4.33,-18.5516,3.9056,-13.6696
4.34,-19.0398,3.9056,-13.6696
4.3500000000000005,-19.0398,4.393800000000001,-14.1578
4.36,-19.0398,4.393800000000001,-14.1578
4.37,-19.528000000000002,2.9292000000000002,-13.1814
4.38,-19.0398,3.4174,-13.6696
4.39,-19.0398,3.4174,-14.1578
4.4,-19.0398,4.393800000000001,-14.1578
4.41,-19.528000000000002,3.9056,-13.6696
4.42,-20.0162,3.4174,-13.6696
4.43,-19.528000000000002,4.393800000000001,-13.1814
4.44,-19.528000000000002,4.393800000000001,-13.1814
4.45,-19.0398,3.9056,-12.693200000000001
4.46,-19.0398,4.393800000000001,-13.1814
4.47,-18.5516,4.393800000000001,-12.693200000000001
4.48,-19.0398,4.882000000000001,-13.6696
4.49,-19.528000000000002,4.393800000000001,-14.1578
4.5,-18.0634,4.393800000000001,-13.6696
4.51,-19.528000000000002,5.3702000000000005,-13.6696
4.5200000000000005,-17.087,3.9056,-13.1814
4.53,-18.0634,5.3702000000000005,-14.646
4.54,-18.5516,4.882000000000001,-14.1578
4.55,-19.0398,4.882000000000001,-14.1578
4.5600000000000005,-18.5516,3.4174,-13.6696
4.57,-17.575200000000002,4.882000000000001,-13.6696
4.58,-16.5988,4.393800000000001,-14.646
4.59,-18.5516,4.393800000000001,-13.6696
4.6000000000000005,-18.0634,3.4174,-13.6696
4.61,-17.575200000000002,3.4174,-13.6696
4.62,-18.5516,3.4174,-13.6696
4.63,-19.0398,4.393800000000001,-14.646
4.64,-18.0634,3.4174,-14.646
4.65,-18.5516,2.4410000000000003,-12.693200000000001
4.66,-18.0634,3.9056,-13.6696
4.67,-18.5516,3.4174,-13.6696
4.68,-18.5516,3.4174,-13.6696
4.69,-18.5516,4.393800000000001,-13.1814
4.7,-19.0398,2.9292000000000002,-13.6696
4.71,-19.0398,3.4174,-13.6696
4.72,-18.5516,3.4174,-13.6696
4.73,-18.0634,2.9292000000000002,-12.205
4.74,-18.5516,3.9056,-13.1814
4.75,-17.575200000000002,3.9056,-13.1814
4.76,-18.0634,3.4174,-12.693200000000001
4.7700000000000005,-19.0398,4.393800000000001,-13.1814
4.78,-18.0634,3.9056,-12.205
4.79,-17.575200000000002,3.9056,-12.205
4.8,-18.0634,4.393800000000001,-12.205
4.8100000000000005,-17.575200000000002,4.393800000000001,-12.693200000000001
4.82,-18.5516,3.9056,-13.1814
4.83,-18.0634,4.882000000000001,-13.1814
4.84,-19.0398,4.393800000000001,-12.693200000000001
4.8500000000000005,-18.5516,4.393800000000001,-13.1814
4.86,-17.575200000000002,4.393800000000001,-13.1814
4.87,-18.5516,4.882000000000001,-14.1578
4.88,-17.575200000000002,4.882000000000001,-14.646
4.89,-18.5516,4.393800000000001,-14.646
4.9,-18.0634,3.9056,-12.693200000000001
4.91,-17.087,3.4174,-14.646
4.92,-18.0634,3.9056,-13.6696
4.93,-17.575200000000002,3.4174,-14.1578
4.94,-18.0634,4.393800000000001,-13.6696
4.95,-18.5516,3.4174,-14.1578
4.96,-17.575200000000002,3.9056,-13.6696
4.97,-17.575200000000002,3.9056,-14.1578
4.98,-18.5516,3.4174,-13.6696
4.99,-17.575200000000002,3.4174,-13.6696
5.0,-18.0634,3.4174,-14.1578
5.01,-17.575200000000002,2.9292000000000002,-13.6696
5.0200000000000005,-17.575200000000002,3.4174,-12.693200000000001
5.03,-18.5516,3.4174,-13.1814
5.04,-18.5516,3.4174,-13.6696
5.05,-18.0634,3.9056,-13.1814
5.0600000000000005,-19.0398,2.4410000000000003,-13.6696
5.07,-18.0634,3.9056,-13.1814
5.08,-18.5516,2.9292000000000002,-13.1814
5.09,-18.0634,3.9056,-12.693200000000001
5.1000000000000005,-19.0398,3.4174,-13.1814
5.11,-18.5516,3.4174,-12.205
5.12,-19.528000000000002,3.4174,-13.6696
5.13,-18.0634,4.393800000000001,-12.693200000000001
5.14,-18.5516,3.9056,-12.693200000000001
5.15,-18.5516,3.4174,-13.6696
5.16,-17.575200000000002,3.9056,-13.6696
5.17,-18.0634,3.9056,-13.6696
5.18,-17.575200000000002,3.9056,-13.1814
5.19,-16.5988,4.393800000000001,-13.6696
5.2,-17.087,3.4174,-13.1814
5.21,-17.575200000000002,3.4174,-12.205
5.22,-17.087,3.4174,-13.1814
5.23,-17.575200000000002,3.4174,-13.6696
5.24,-16.5988,3.4174,-13.6696
5.25,-18.5516,4.393800000000001,-12.693200000000001
5.26,-16.1106,3.9056,-13.6696
5.2700000000000005,-16.1106,4.393800000000001,-13.1814
5.28,-17.087,3.4174,-13.6696
5.29,-17.575200000000002,2.9292000000000002,-13.1814
5.3,-17.575200000000002,3.9056,-13.1814
5.3100000000000005,-18.0634,3.4174,-14.1578
5.32,-17.087,2.4410000000000003,-13.6696
5.33,-18.0634,3.4174,-13.6696
5.34,-17.575200000000002,3.4174,-13.1814
5.3500000000000005,-17.575200000000002,2.9292000000000002,-13.1814
5.36,-18.0634,2.4410000000000003,-13.6696
5.37,-18.0634,2.9292000000000002,-13.6696
5.38,-18.5516,3.9056,-12.693200000000001
5.39,-18.0634,2.4410000000000003,-12.693200000000001
5.4,-18.0634,2.9292000000000002,-12.693200000000001
5.41,-18.0634,2.9292000000000002,-12.205
5.42,-17.575200000000002,2.4410000000000003,-13.6696
5.43,-17.575200000000002,2.4410000000000003,-12.205
5.44,-17.575200000000002,2.9292000000000002,-12.693200000000001
5.45,-17.575200000000002,3.4174,-13.1814
5.46,-18.0634,3.9056,-12.693200000000001
5.47,-18.0634,4.393800000000001,-13.1814
5.48,-18.0634,3.9056,-13.1814
5.49,-18.0634,3.4174,-12.693200000000001
5.5,-18.0634,3.9056,-11.2286
5.51,-17.087,4.393800000000001,-12.693200000000001
5.5200000000000005,-17.575200000000002,3.9056,-12.693200000000001
5.53,-17.575200000000002,4.393800000000001,-12.693200000000001
5.54,-17.087,3.9056,-13.1814
5.55,-17.087,3.4174,-13.1814
5.5600000000000005,-16.5988,2.4410000000000003,-12.205
5.57,-16.5988,3.9056,-13.1814
5.58,-17.087,3.4174,-13.1814
5.59,-17.087,3.9056,-12.693200000000001
5.6000000000000005,-17.087,3.4174,-13.6696
5.61,-16.5988,4.393800000000001,-13.1814
5.62,-17.575200000000002,3.4174,-13.6696
5.63,-16.5988,3.9056,-13.1814
5.64,-17.087,2.9292000000000002,-12.693200000000001
5.65,-17.087,2.9292000000000002,-13.6696
5.66,-17.575200000000002,2.9292000000000002,-13.1814
5.67,-17.087,3.4174,-13.1814
5.68,-17.575200000000002,3.9056,-12.693200000000001
5.69,-17.575200000000002,3.4174,-12.205
5.7,-18.0634,2.9292000000000002,-13.1814
5.71,-17.087,2.9292000000000002,-13.1814
5.72,-17.575200000000002,2.9292000000000002,-12.693200000000001
5.73,-17.575200000000002,3.4174,-12.205
5.74,-17.087,2.4410000000000003,-13.6696
5.75,-18.0634,3.4174,-12.693200000000001
5.76,-17.087,2.9292000000000002,-13.6696
5.7700000000000005,-17.575200000000002,1.9528,-13.1814
5.78,-17.575200000000002,3.4174,-12.693200000000001
5.79,-16.5988,2.4410000000000003,-12.693200000000001
5.8,-17.087,2.9292000000000002,-12.205
5.8100000000000005,-17.575200000000002,3.9056,-13.1814
5.82,-17.575200000000002,3.9056,-12.205
5.83,-17.575200000000002,3.9056,-12.205
5.84,-17.087,3.4174,-12.205
5.8500000000000005,-17.575200000000002,3.4174,-11.716800000000001
5.86,-17.087,2.4410000000000003,-13.1814
5.87,-17.087,3.4174,-12.693200000000001
5.88,-17.087,3.9056,-11.716800000000001
5.89,-17.087,4.393800000000001,-11.716800000000001
5.9,-17.087,3.4174,-12.693200000000001
5.91,-16.5988,3.9056,-12.693200000000001
5.92,-17.575200000000002,3.4174,-13.1814
5.93,-16.5988,3.4174,-13.6696
5.94,-17.087,3.4174,-12.693200000000001
5.95,-17.087,3.4174,-13.1814
5.96,-16.5988,3.9056,-13.6696
5.97,-15.6224,2.4410000000000003,-12.693200000000001
5.98,-15.1342,3.4174,-13.1814
5.99,-16.1106,3.4174,-14.1578
6.0,-17.575200000000002,3.4174,-14.1578
6.01,-15.1342,2.4410000000000003,-12.693200000000001
6.0200000000000005,-16.5988,2.9292000000000002,-13.1814
6.03,-17.575200000000002,2.4410000000000003,-12.693200000000001
6.04,-16.5988,2.9292000000000002,-13.1814
6.05,-15.6224,2.4410000000000003,-13.1814
6.0600000000000005,-16.1106,2.9292000000000002,-13.1814
6.07,-17.575200000000002,2.9292000000000002,-12.693200000000001
6.08,-17.087,2.9292000000000002,-13.1814
6.09,-17.087,2.4410000000000003,-12.693200000000001
6.1000000000000005,-17.087,1.9528,-12.205
6.11,-17.575200000000002,2.4410000000000003,-12.693200000000001
6.12,-17.575200000000002,1.9528,-12.693200000000001
6.13,-17.087,2.9292000000000002,-11.716800000000001
6.140000000000001,-17.575200000000002,2.4410000000000003,-12.205
6.15,-18.0634,3.4174,-13.1814
6.16,-16.5988,2.9292000000000002,-13.1814
6.17,-16.5988,3.9056,-12.205
6.18,-16.5988,2.9292000000000002,-11.716800000000001
6.19,-17.575200000000002,2.9292000000000002,-11.716800000000001
6.2,-16.1106,3.4174,-11.716800000000001
6.21,-16.5988,3.4174,-12.205
6.22,-16.1106,4.393800000000001,-11.716800000000001
6.23,-16.5988,3.9056,-12.205
6.24,-16.5988,3.4174,-13.1814
6.25,-16.5988,3.4174,-12.693200000000001
6.26,-16.1106,3.4174,-11.716800000000001
6.2700000000000005,-17.087,2.9292000000000002,-12.693200000000001
6.28,-15.1342,3.4174,-12.205
6.29,-15.6224,3.9056,-13.1814
6.3,-15.6224,2.9292000000000002,-13.1814
6.3100000000000005,-16.1106,3.4174,-12.205
6.32,-16.1106,3.4174,-13.1814
6.33,-16.5988,2.4410000000000003,-12.205
6.34,-17.087,2.9292000000000002,-13.1814
6.3500000000000005,-16.1106,2.9292000000000002,-11.716800000000001
6.36,-16.5988,1.9528,-12.693200000000001
6.37,-15.6224,3.4174,-12.205
6.38,-16.5988,2.9292000000000002,-12.205
6.390000000000001,-16.1106,3.4174,-13.6696
6.4,-15.6224,2.4410000000000003,-14.1578
6.41,-17.087,2.9292000000000002,-12.693200000000001
6.42,-17.087,2.9292000000000002,-12.693200000000001
6.43,-16.5988,1.9528,-13.1814
6.44,-16.5988,2.9292000000000002,-12.205
6.45,-17.087,1.4646000000000001,-12.205
6.46,-16.5988,2.4410000000000003,-12.693200000000001
6.47,-16.1106,2.4410000000000003,-12.693200000000001
6.48,-17.087,2.4410000000000003,-12.205
6.49,-17.087,1.9528,-12.693200000000001
6.5,-17.087,2.4410000000000003,-11.716800000000001
6.51,-16.5988,1.9528,-11.716800000000001
6.5200000000000005,-16.1106,1.9528,-12.693200000000001
6.53,-15.6224,3.4174,-11.2286
6.54,-16.1106,2.4410000000000003,-11.716800000000001
6.55,-16.1106,2.9292000000000002,-10.740400000000001
6.5600000000000005,-17.087,2.9292000000000002,-12.205
6.57,-17.087,1.9528,-11.716800000000001
6.58,-16.1106,2.4410000000000003,-12.205
6.59,-16.1106,2.9292000000000002,-11.716800000000001
6.6000000000000005,-17.087,2.4410000000000003,-12.205
6.61,-16.1106,3.4174,-11.2286
6.62,-16.5988,3.4174,-11.716800000000001
6.63,-16.1106,4.393800000000001,-11.716800000000001
6.640000000000001,-16.1106,3.4174,-11.716800000000001
6.65,-16.1106,2.9292000000000002,-12.205
6.66,-15.6224,3.9056,-11.716800000000001
6.67,-15.6224,3.4174,-12.205
6.68,-16.5988,2.9292000000000002,-12.693200000000001
6.69,-15.6224,2.9292000000000002,-13.1814
6.7,-15.1342,2.9292000000000002,-12.205
6.71,-15.6224,2.4410000000000003,-12.205
6.72,-16.5988,2.9292000000000002,-12.693200000000001
6.73,-15.6224,2.4410000000000003,-12.205
6.74,-16.1106,2.4410000000000003,-11.716800000000001
6.75,-16.5988,3.4174,-13.1814
6.76,-16.1106,2.4410000000000003,-12.693200000000001
6.7700000000000005,-15.1342,2.4410000000000003,-12.693200000000001
6.78,-15.6224,2.9292000000000002,-13.1814
6.79,-16.1106,1.9528,-12.205
6.8,-16.1106,3.4174,-12.693200000000001
6.8100000000000005,-16.5988,2.9292000000000002,-11.716800000000001
6.82,-15.6224,1.9528,-12.205
6.83,-17.575200000000002,2.9292000000000002,-12.205
6.84,-16.5988,1.9528,-12.693200000000001
6.8500000000000005,-16.1106,2.4410000000000003,-12.205
6.86,-16.5988,1.9528,-12.693200000000001
6.87,-15.6224,2.4410000000000003,-12.205
6.88,-17.087,1.9528,-11.716800000000001
6.890000000000001,-16.1106,2.9292000000000002,-11.716800000000001
6.9,-16.1106,2.9292000000000002,-12.205
6.91,-15.1342,1.9528,-11.716800000000001
6.92,-16.5988,2.4410000000000003,-11.2286
6.93,-16.1106,2.9292000000000002,-11.2286
6.94,-16.5988,2.4410000000000003,-11.716800000000001
6.95,-16.5988,2.4410000000000003,-12.205
6.96,-16.5988,2.9292000000000002,-11.716800000000001
6.97,-16.5988,3.4174,-11.716800000000001
6.98,-16.5988,2.9292000000000002,-10.2522
6.99,-16.1106,3.4174,-11.2286
7.0,-16.5988,3.9056,-11.2286
7.01,-15.6224,2.9292000000000002,-12.205
7.0200000000000005,-15.1342,3.9056,-12.205
7.03,-15.6224,2.9292000000000002,-11.2286
7.04,-16.1106,2.9292000000000002,-12.205
7.05,-15.6224,2.9292000000000002,-11.716800000000001
7.0600000000000005,-15.6224,2.9292000000000002,-12.205
7.07,-16.1106,3.9056,-11.716800000000001
7.08,-15.6224,2.9292000000000002,-11.716800000000001
7.09,-15.1342,3.9056,-12.205
7.1000000000000005,-15.1342,2.4410000000000003,-12.693200000000001
7.11,-16.5988,2.4410000000000003,-11.716800000000001
7.12,-16.1106,2.9292000000000002,-11.716800000000001
7.13,-15.6224,2.4410000000000003,-13.1814
7.140000000000001,-15.1342,1.9528,-12.205
7.15,-15.1342,2.4410000000000003,-12.693200000000001
7.16,-15.6224,3.4174,-12.205
7.17,-15.6224,1.4646000000000001,-12.205
7.18,-14.646,1.4646000000000001,-12.205
7.19,-15.1342,2.4410000000000003,-12.693200000000001
7.2,-15.1342,2.4410000000000003,-13.1814
7.21,-16.1106,1.4646000000000001,-12.205
7.22,-15.6224,1.9528,-12.205
7.23,-15.6224,1.4646000000000001,-12.205
7.24,-15.6224,1.9528,-12.693200000000001
7.25,-15.6224,1.4646000000000001,-12.205
7.26,-16.1106,1.4646000000000001,-12.205
7.2700000000000005,-15.6224,1.9528,-12.205
7.28,-16.1106,2.4410000000000003,-11.716800000000001
7.29,-16.1106,0.4882,-12.205
7.3,-15.6224,1.4646000000000001,-11.716800000000001
7.3100000000000005,-16.1106,1.4646000000000001,-10.740400000000001
7.32,-15.1342,0.9764,-11.2286
7.33,-16.5988,1.9528,-11.716800000000001
7.34,-16.1106,2.9292000000000002,-10.740400000000001
7.3500000000000005,-16.1106,2.4410000000000003,-10.740400000000001
7.36,-15.6224,1.9528,-10.740400000000001
7.37,-15.6224,1.9528,-11.2286
7.38,-16.5988,2.4410000000000003,-11.2286
7.390000000000001,-17.087,3.9056,-10.740400000000001
7.4,-15.1342,2.9292000000000002,-11.2286
7.41,-15.6224,1.9528,-10.740400000000001
7.42,-15.1342,2.9292000000000002,-11.716800000000001
7.43,-15.1342,2.4410000000000003,-11.2286
7.44,-15.6224,2.9292000000000002,-11.716800000000001
7.45,-15.6224,2.4410000000000003,-11.716800000000001
7.46,-15.6224,3.4174,-11.2286
7.47,-15.6224,2.4410000000000003,-12.205
7.48,-15.6224,3.9056,-12.205
7.49,-15.6224,1.9528,-12.205
7.5,-14.646,3.4174,-12.693200000000001
7.51,-15.1342,2.9292000000000002,-12.693200000000001
7.5200000000000005,-14.646,1.9528,-12.205
7.53,-14.646,2.4410000000000003,-11.716800000000001
7.54,-15.1342,2.9292000000000002,-11.716800000000001
7.55,-14.646,2.9292000000000002,-11.716800000000001
7.5600000000000005,-14.646,2.9292000000000002,-12.205
7.57,-15.1342,1.9528,-11.2286
7.58,-15.1342,1.9528,-12.205
7.59,-15.6224,1.9528,-12.693200000000001
7.6000000000000005,-14.1578,1.4646000000000001,-12.693200000000001
7.61,-15.6224,1.9528,-11.716800000000001
7.62,-14.646,0.9764,-11.716800000000001
7.63,-16.5988,1.4646000000000001,-12.693200000000001
7.640000000000001,-15.1342,1.4646000000000001,-12.693200000000001
7.65,-16.1106,1.4646000000000001,-11.716800000000001
7.66,-15.1342,2.4410000000000003,-11.716800000000001
7.67,-15.1342,1.9528,-13.1814
7.68,-15.6224,0.9764,-11.716800000000001
7.69,-14.646,1.4646000000000001,-11.716800000000001
7.7,-15.6224,1.4646000000000001,-11.716800000000001
7.71,-16.1106,1.4646000000000001,-11.2286
7.72,-16.1106,0.9764,-11.716800000000001
7.73,-15.6224,1.9528,-11.2286
7.74,-15.1342,2.9292000000000002,-11.716800000000001
7.75,-15.6224,1.4646000000000001,-11.2286
7.76,-14.646,1.9528,-10.740400000000001
7.7700000000000005,-15.6224,1.9528,-11.716800000000001
7.78,-15.1342,2.4410000000000003,-10.740400000000001
7.79,-15.1342,3.4174,-10.740400000000001
7.8,-15.6224,1.9528,-11.2286
7.8100000000000005,-15.6224,4.393800000000001,-10.2522
7.82,-14.646,2.9292000000000002,-11.2286
7.83,-15.1342,2.9292000000000002,-11.2286
7.84,-15.1342,2.9292000000000002,-10.740400000000001
7.8500000000000005,-14.646,3.4174,-11.2286
7.86,-14.646,2.4410000000000003,-11.2286
7.87,-15.1342,3.4174,-11.716800000000001
7.88,-15.1342,2.9292000000000002,-10.740400000000001
7.890000000000001,-14.646,1.4646000000000001,-11.716800000000001
7.9,-14.1578,2.9292000000000002,-11.716800000000001
7.91,-14.646,1.9528,-12.693200000000001
7.92,-14.646,2.4410000000000003,-12.205
7.930000000000001,-14.646,2.9292000000000002,-11.716800000000001
7.94,-15.1342,3.9056,-12.693200000000001
7.95,-14.1578,2.4410000000000003,-11.716800000000001
7.96,-14.646,2.4410000000000003,-12.205
7.97,-15.1342,2.9292000000000002,-11.716800000000001
7.98,-14.1578,2.4410000000000003,-12.205
7.99,-14.1578,2.4410000000000003,-12.205
8.0,-15.1342,0.9764,-12.205
8.01,-15.1342,2.4410000000000003,-12.693200000000001
8.02,-14.646,2.4410000000000003,-12.205
8.03,-15.6224,0.9764,-12.205
8.040000000000001,-14.646,0.9764,-11.2286
8.05,-14.646,1.4646000000000001,-12.205
8.06,-14.646,0.9764,-11.2286
8.07,-15.1342,1.4646000000000001,-12.693200000000001
8.08,-15.6224,1.4646000000000001,-12.205
8.09,-14.1578,1.4646000000000001,-12.205
8.1,-15.1342,0.9764,-11.2286
8.11,-15.6224,1.4646000000000001,-11.2286
8.120000000000001,-15.1342,0.9764,-11.716800000000001
8.13,-15.1342,0.4882,-11.2286
8.14,-15.1342,0.4882,-11.2286
8.15,-15.6224,1.4646000000000001,-11.716800000000001
8.16,-15.1342,1.4646000000000001,-11.716800000000001
8.17,-15.6224,1.9528,-10.740400000000001
8.18,-15.6224,1.4646000000000001,-11.716800000000001
8.19,-15.1342,1.4646000000000001,-10.740400000000001
8.2,-15.1342,2.4410000000000003,-11.716800000000001
8.21,-15.6224,2.4410000000000003,-10.2522
8.22,-15.6224,2.4410000000000003,-10.2522
8.23,-15.6224,1.9528,-10.2522
8.24,-14.646,1.9528,-10.740400000000001
8.25,-15.1342,2.4410000000000003,-11.2286
8.26,-15.1342,1.9528,-11.2286
8.27,-14.1578,1.9528,-10.740400000000001
8.28,-15.1342,2.9292000000000002,-10.740400000000001
8.290000000000001,-14.646,2.4410000000000003,-10.740400000000001
8.3,-14.646,2.9292000000000002,-11.716800000000001
8.31,-15.1342,2.9292000000000002,-11.2286
8.32,-14.646,1.9528,-10.740400000000001
8.33,-14.646,1.9528,-12.205
8.34,-14.1578,2.4410000000000003,-11.716800000000001
8.35,-14.646,2.9292000000000002,-11.2286
8.36,-14.1578,2.4410000000000003,-11.716800000000001
8.370000000000001,-14.646,1.9528,-11.2286
8.38,-13.6696,1.4646000000000001,-11.716800000000001
8.39,-13.1814,1.9528,-11.716800000000001
8.4,-13.6696,1.4646000000000001,-11.2286
8.41,-14.1578,2.4410000000000003,-12.205
8.42,-13.6696,2.9292000000000002,-12.205
8.43,-14.1578,2.9292000000000002,-11.2286
8.44,-14.646,1.9528,-12.693200000000001
8.45,-15.1342,1.4646000000000001,-11.716800000000001
8.46,-14.1578,0.9764,-12.205
8.47,-14.646,0.9764,-12.205
8.48,-14.1578,1.9528,-12.205
8.49,-14.646,1.4646000000000001,-12.205
8.5,-14.646,0.9764,-12.205
8.51,-14.646,1.4646000000000001,-11.716800000000001
8.52,-15.1342,0.9764,-11.2286
8.53,-15.1342,1.4646000000000001,-11.2286
8.540000000000001,-15.1342,1.4646000000000001,-10.740400000000001
8.55,-14.1578,0.9764,-10.2522
8.56,-15.1342,1.4646000000000001,-10.2522
8.57,-15.1342,1.4646000000000001,-11.2286
8.58,-15.1342,0.9764,-11.2286
8.59,-15.1342,1.9528,-10.740400000000001
8.6,-14.646,1.4646000000000001,-10.740400000000001
8.61,-16.1106,0.9764,-10.740400000000001
8.620000000000001,-14.646,2.4410000000000003,-11.2286
8.63,-14.646,1.9528,-10.740400000000001
8.64,-14.646,2.9292000000000002,-10.2522
8.65,-14.646,1.9528,-10.2522
8.66,-15.1342,1.9528,-10.2522
8.67,-15.1342,1.9528,-9.764000000000001
8.68,-14.1578,2.4410000000000003,-10.2522
8.69,-15.1342,2.4410000000000003,-9.764000000000001
8.700000000000001,-14.1578,1.9528,-10.2522
8.71,-14.1578,2.9292000000000002,-11.716800000000001
8.72,-14.646,2.9292000000000002,-11.2286
8.73,-15.1342,2.4410000000000003,-10.740400000000001
8.74,-14.646,2.4410000000000003,-11.2286
8.75,-14.1578,2.9292000000000002,-10.740400000000001
8.76,-14.646,1.9528,-11.2286
8.77,-13.6696,2.9292000000000002,-10.2522
8.78,-14.1578,1.4646000000000001,-11.2286
8.790000000000001,-13.6696,3.4174,-10.740400000000001
8.8,-14.1578,2.4410000000000003,-11.716800000000001
8.81,-13.6696,1.9528,-10.740400000000001
8.82,-14.1578,1.9528,-12.205
8.83,-15.6224,2.4410000000000003,-11.716800000000001
8.84,-14.646,2.9292000000000002,-11.716800000000001
8.85,-14.1578,1.4646000000000001,-12.693200000000001
8.86,-13.6696,1.9528,-11.716800000000001
8.870000000000001,-14.1578,1.9528,-11.2286
8.88,-13.6696,1.9528,-11.716800000000001
8.89,-13.6696,1.4646000000000001,-12.205
8.9,-13.6696,0.9764,-11.2286
8.91,-14.646,1.9528,-11.716800000000001
8.92,-14.1578,0.9764,-11.716800000000001
8.93,-14.1578,0.9764,-11.2286
8.94,-14.646,0.9764,-11.716800000000001
8.950000000000001,-14.646,0.4882,-12.205
8.96,-14.646,0.4882,-11.716800000000001
8.97,-15.1342,0.4882,-11.2286
8.98,-14.1578,0.0,-10.740400000000001
8.99,-14.646,0.4882,-11.2286
9.0,-14.646,1.4646000000000001,-11.2286
9.01,-14.646,0.4882,-10.2522
9.02,-15.1342,1.9528,-11.2286
9.03,-13.6696,0.4882,-10.2522
9.040000000000001,-15.1342,0.9764,-10.740400000000001
9.05,-14.1578,1.9528,-11.2286
9.06,-15.6224,2.4410000000000003,-10.740400000000001
9.07,-15.1342,1.4646000000000001,-10.2522
9.08,-13.6696,2.9292000000000002,-11.2286
9.09,-14.646,1.9528,-10.740400000000001
9.1,-14.1578,1.4646000000000001,-10.2522
9.11,-14.1578,1.9528,-10.2522
9.120000000000001,-15.6224,1.9528,-9.764000000000001
9.13,-14.646,1.4646000000000001,-11.2286
9.14,-15.1342,2.4410000000000003,-9.764000000000001
9.15,-14.1578,2.4410000000000003,-11.2286
9.16,-14.1578,1.9528,-10.740400000000001
9.17,-15.6224,1.9528,-9.764000000000001
9.18,-14.646,2.4410000000000003,-10.740400000000001
9.19,-13.1814,2.4410000000000003,-10.740400000000001
9.200000000000001,-13.6696,3.4174,-11.716800000000001
9.21,-13.6696,1.9528,-10.2522
9.22,-14.1578,2.9292000000000002,-11.2286
9.23,-14.1578,2.9292000000000002,-11.716800000000001
9.24,-13.6696,2.4410000000000003,-11.2286
9.25,-14.1578,1.9528,-10.740400000000001
9.26,-14.1578,1.9528,-10.740400000000001
9.27,-13.6696,2.9292000000000002,-11.2286
9.28,-13.6696,1.9528,-10.740400000000001
9.290000000000001,-13.6696,1.9528,-11.2286
9.3,-13.6696,1.9528,-12.205
9.31,-13.6696,0.9764,-12.205
9.32,-13.6696,1.9528,-12.693200000000001
9.33,-14.646,1.9528,-11.716800000000001
9.34,-14.1578,1.4646000000000001,-11.716800000000001
9.35,-13.6696,1.4646000000000001,-11.2286
9.36,-14.1578,0.9764,-11.716800000000001
9.370000000000001,-14.646,0.4882,-11.716800000000001
9.38,-14.646,0.9764,-11.716800000000001
9.39,-14.1578,0.4882,-11.716800000000001
9.4,-14.646,0.9764,-11.716800000000001
9.41,-14.1578,0.4882,-11.2286
9.42,-15.1342,1.4646000000000001,-11.2286
9.43,-14.1578,0.4882,-11.716800000000001
9.44,-15.1342,1.4646000000000001,-11.716800000000001
9.450000000000001,-14.646,0.4882,-10.740400000000001
9.46,-14.1578,1.4646000000000001,-10.740400000000001
9.47,-14.646,0.9764,-10.740400000000001
9.48,-14.646,0.9764,-11.2286
9.49,-14.1578,0.4882,-9.764000000000001
9.5,-15.1342,1.4646000000000001,-10.740400000000001
9.51,-14.646,1.4646000000000001,-10.740400000000001
9.52,-15.1342,1.4646000000000001,-9.764000000000001
9.53,-14.1578,0.9764,-10.740400000000001
9.540000000000001,-14.646,0.4882,-10.2522
9.55,-14.646,0.9764,-9.764000000000001
9.56,-15.6224,1.4646000000000001,-10.2522
9.57,-14.646,1.4646000000000001,-10.740400000000001
9.58,-14.646,1.4646000000000001,-9.764000000000001
9.59,-15.1342,1.4646000000000001,-10.2522
9.6,-15.1342,1.9528,-10.2522
9.61,-14.1578,1.9528,-9.764000000000001
9.620000000000001,-14.1578,1.9528,-10.2522
9.63,-13.1814,2.9292000000000002,-10.2522
9.64,-14.646,1.4646000000000001,-10.2522
9.65,-14.1578,2.4410000000000003,-10.740400000000001
9.66,-14.646,2.4410000000000003,-10.2522
9.67,-13.1814,1.4646000000000001,-9.764000000000001
9.68,-13.1814,1.4646000000000001,-10.2522
9.69,-13.6696,2.9292000000000002,-10.740400000000001
9.700000000000001,-13.6696,2.9292000000000002,-10.2522
9.71,-13.6696,2.4410000000000003,-10.740400000000001
9.72,-13.1814,2.4410000000000003,-10.2522
9.73,-13.6696,2.9292000000000002,-11.716800000000001
9.74,-13.6696,1.4646000000000001,-10.2522
9.75,-13.1814,1.9528,-10.740400000000001
9.76,-13.1814,0.9764,-11.2286
9.77,-13.6696,1.9528,-11.716800000000001
9.78,-14.1578,1.9528,-11.2286
9.790000000000001,-14.646,1.4646000000000001,-11.2286
9.8,-13.1814,2.4410000000000003,-11.2286
9.81,-13.1814,1.4646000000000001,-10.740400000000001
9.82,-13.1814,2.4410000000000003,-11.2286
9.83,-13.6696,0.4882,-11.716800000000001
9.84,-14.646,0.9764,-11.2286
9.85,-13.6696,1.9528,-11.716800000000001
9.86,-13.1814,0.4882,-11.716800000000001
9.870000000000001,-14.1578,0.4882,-11.716800000000001
9.88,-14.1578,0.4882,-11.2286
9.89,-14.1578,0.4882,-10.740400000000001
9.9,-14.646,0.4882,-10.740400000000001
9.91,-13.6696,0.9764,-11.716800000000001
9.92,-14.646,0.4882,-11.2286
9.93,-14.646,0.4882,-10.2522
9.94,-15.1342,0.4882,-11.2286
9.950000000000001,-14.1578,0.4882,-10.2522
9.96,-13.6696,0.9764,-11.2286
9.97,-15.1342,0.4882,-11.2286
9.98,-14.1578,0.0,-10.740400000000001
9.99,-13.6696,0.9764,-10.2522
10.0,-14.646,1.4646000000000001,-9.764000000000001
10.01,-14.1578,1.4646000000000001,-9.764000000000001
10.02,-15.1342,0.9764,-10.740400000000001
10.03,-14.646,0.9764,-9.764000000000001
10.040000000000001,-14.646,1.4646000000000001,-9.2758
10.05,-14.1578,2.4410000000000003,-9.764000000000001
10.06,-13.6696,1.4646000000000001,-9.2758
10.07,-15.1342,1.9528,-9.2758
10.08,-14.1578,1.4646000000000001,-9.764000000000001
10.09,-14.1578,1.4646000000000001,-10.2522
10.1,-13.6696,2.4410000000000003,-9.764000000000001
10.11,-13.6696,1.9528,-9.764000000000001
10.120000000000001,-13.1814,1.9528,-10.2522
10.13,-14.1578,1.9528,-10.2522
10.14,-13.1814,1.9528,-9.764000000000001
10.15,-13.6696,1.9528,-9.764000000000001
10.16,-13.1814,1.4646000000000001,-10.740400000000001
10.17,-13.6696,1.9528,-10.740400000000001
10.18,-12.693200000000001,1.9528,-11.2286
10.19,-14.1578,1.9528,-10.2522
10.200000000000001,-13.1814,1.9528,-10.2522
10.21,-13.1814,2.9292000000000002,-10.2522
10.22,-12.693200000000001,2.9292000000000002,-10.740400000000001
10.23,-12.205,2.4410000000000003,-10.740400000000001
10.24,-13.6696,1.9528,-10.740400000000001
10.25,-13.1814,0.9764,-10.740400000000001
10.26,-13.1814,1.9528,-12.205
10.27,-11.716800000000001,1.9528,-11.2286
10.28,-13.1814,1.9528,-12.205
10.290000000000001,-13.6696,1.4646000000000001,-11.716800000000001
10.3,-13.1814,0.4882,-11.2286
10.31,-14.1578,0.9764,-11.2286
10.32,-13.1814,0.9764,-11.716800000000001
10.33,-12.693200000000001,0.0,-10.740400000000001
10.34,-13.6696,0.4882,-11.2286
10.35,-13.6696,0.9764,-12.693200000000001
10.36,-13.6696,0.0,-11.2286
10.370000000000001,-13.6696,0.4882,-11.2286
10.38,-13.6696,0.4882,-10.740400000000001
10.39,-14.1578,0.9764,-11.2286
10.4,-14.1578,0.0,-11.2286
10.41,-14.646,0.4882,-11.2286
10.42,-14.1578,1.4646000000000001,-10.740400000000001
10.43,-13.6696,0.4882,-11.2286
10.44,-13.1814,0.0,-10.740400000000001
10.450000000000001,-15.1342,0.9764,-10.2522
10.46,-13.6696,0.0,-11.2286
10.47,-14.1578,-0.4882,-9.764000000000001
10.48,-15.1342,0.9764,-11.2286
10.49,-14.1578,0.4882,-9.2758
10.5,-15.1342,0.9764,-10.740400000000001
10.51,-15.6224,0.4882,-9.764000000000001
10.52,-14.1578,0.4882,-9.764000000000001
10.53,-14.646,1.4646000000000001,-10.2522
10.540000000000001,-14.1578,0.4882,-10.2522
10.55,-14.646,1.4646000000000001,-9.2758
10.56,-14.646,1.4646000000000001,-9.764000000000001
10.57,-14.1578,0.9764,-10.740400000000001
10.58,-13.6696,1.9528,-9.2758
10.59,-13.1814,0.9764,-10.2522
10.6,-14.646,2.4410000000000003,-9.764000000000001
10.61,-13.6696,1.4646000000000001,-9.764000000000001
10.620000000000001,-12.693200000000001,1.9528,-9.764000000000001
10.63,-14.1578,1.4646000000000001,-10.2522
10.64,-13.1814,1.9528,-9.2758
10.65,-12.693200000000001,1.4646000000000001,-10.2522
10.66,-13.1814,1.9528,-9.764000000000001
10.67,-12.693200000000001,1.9528,-9.764000000000001
10.68,-11.716800000000001,2.9292000000000002,-10.740400000000001
10.69,-13.1814,1.9528,-10.2522
10.700000000000001,-12.693200000000001,1.9528,-10.2522
10.71,-13.6696,1.4646000000000001,-10.740400000000001
10.72,-13.1814,1.9528,-10.740400000000001
10.73,-12.693200000000001,1.4646000000000001,-11.716800000000001
10.74,-14.1578,1.9528,-11.2286
10.75,-13.6696,1.9528,-11.2286
10.76,-12.693200000000001,1.9528,-11.716800000000001
10.77,-13.1814,1.4646000000000001,-11.2286
10.78,-12.693200000000001,0.9764,-10.740400000000001
10.790000000000001,-12.693200000000001,1.4646000000000001,-11.2286
10.8,-13.1814,1.4646000000000001,-11.716800000000001
10.81,-12.693200000000001,0.9764,-11.716800000000001
10.82,-12.693200000000001,1.4646000000000001,-11.716800000000001
10.83,-13.6696,0.0,-12.205
10.84,-13.6696,0.4882,-10.740400000000001
10.85,-12.693200000000001,0.4882,-11.716800000000001
10.86,-13.6696,0.4882,-11.716800000000001
10.870000000000001,-13.1814,0.0,-10.740400000000001
10.88,-14.1578,0.4882,-10.2522
10.89,-13.6696,0.0,-11.716800000000001
10.9,-13.1814,0.0,-10.2522
10.91,-13.1814,0.4882,-10.2522
10.92,-13.6696,0.0,-9.764000000000001
10.93,-14.1578,0.9764,-11.2286
10.94,-14.1578,0.9764,-10.740400000000001
10.950000000000001,-14.1578,0.0,-10.740400000000001
10.96,-12.693200000000001,0.9764,-10.740400000000001
10.97,-14.646,-0.4882,-10.2522
10.98,-13.1814,-0.9764,-10.740400000000001
10.99,-14.1578,0.4882,-10.740400000000001
11.0,-13.1814,0.4882,-10.2522
11.01,-14.1578,0.9764,-10.2522
11.02,-14.646,0.4882,-9.764000000000001
11.03,-14.1578,0.0,-9.764000000000001
11.040000000000001,-14.646,0.9764,-10.740400000000001
11.05,-13.6696,0.4882,-9.2758
11.06,-14.1578,0.9764,-10.2522
11.07,-14.646,0.4882,-9.2758
11.08,-13.6696,0.9764,-9.2758
11.09,-14.1578,1.4646000000000001,-9.2758
11.1,-13.6696,1.4646000000000001,-8.2994
11.11,-13.6696,1.9528,-9.764000000000001
11.120000000000001,-13.6696,1.9528,-9.764000000000001
11.13,-13.6696,1.9528,-10.2522
11.14,-14.1578,0.9764,-9.2758
11.15,-13.6696,1.4646000000000001,-10.2522
11.16,-13.1814,2.4410000000000003,-9.764000000000001
11.17,-13.1814,1.4646000000000001,-9.2758
11.18,-12.205,0.9764,-9.2758
11.19,-12.205,1.9528,-9.764000000000001
11.200000000000001,-12.205,2.4410000000000003,-8.787600000000001
11.21,-12.205,1.4646000000000001,-10.2522
11.22,-12.693200000000001,2.9292000000000002,-10.740400000000001
11.23,-12.693200000000001,1.9528,-10.2522
11.24,-12.693200000000001,1.4646000000000001,-10.740400000000001
11.25,-12.205,2.4410000000000003,-11.2286
11.26,-13.1814,1.9528,-9.2758
11.27,-12.205,1.4646000000000001,-10.740400000000001
11.28,-12.693200000000001,1.9528,-10.740400000000001
11.290000000000001,-12.205,1.4646000000000001,-11.2286
11.3,-11.2286,1.4646000000000001,-11.716800000000001
11.31,-11.716800000000001,1.4646000000000001,-10.740400000000001
11.32,-11.716800000000001,0.9764,-10.2522
11.33,-12.693200000000001,0.9764,-10.740400000000001
11.34,-12.693200000000001,0.9764,-11.716800000000001
11.35,-12.693200000000001,1.9528,-11.716800000000001
11.36,-12.205,0.9764,-11.716800000000001
11.370000000000001,-12.693200000000001,1.4646000000000001,-10.740400000000001
11.38,-12.693200000000001,0.9764,-10.740400000000001
11.39,-13.6696,0.4882,-11.716800000000001
11.4,-13.6696,0.4882,-11.2286
11.41,-14.1578,0.4882,-12.205
11.42,-13.1814,0.4882,-11.2286
11.43,-13.6696,0.4882,-10.740400000000001
11.44,-14.1578,0.4882,-10.2522
11.450000000000001,-13.6696,0.4882,-10.740400000000001
11.46,-13.6696,0.4882,-10.740400000000001
11.47,-13.1814,0.9764,-9.764000000000001
11.48,-14.646,0.0,-11.2286
11.49,-13.6696,0.0,-10.2522
11.5,-13.6696,0.0,-9.764000000000001
11.51,-14.1578,0.4882,-9.764000000000001
11.52,-14.646,-0.4882,-10.2522
11.53,-13.1814,0.0,-10.740400000000001
11.540000000000001,-13.6696,0.0,-8.787600000000001
11.55,-13.1814,0.0,-9.764000000000001
11.56,-13.1814,0.9764,-10.2522
11.57,-13.6696,0.4882,-9.2758
11.58,-15.1342,0.9764,-10.740400000000001
11.59,-13.6696,0.4882,-9.764000000000001
11.6,-13.6696,0.4882,-9.2758
11.61,-13.6696,0.4882,-9.2758
11.620000000000001,-13.6696,1.4646000000000001,-9.2758
11.63,-13.6696,1.4646000000000001,-9.764000000000001
11.64,-13.6696,0.9764,-9.2758
11.65,-14.1578,1.9528,-9.764000000000001
11.66,-13.1814,1.4646000000000001,-9.764000000000001
11.67,-13.1814,1.9528,-8.2994
11.68,-13.6696,1.9528,-9.2758
11.69,-13.1814,1.4646000000000001,-9.2758
11.700000000000001,-12.693200000000001,1.4646000000000001,-9.764000000000001
11.71,-13.1814,2.4410000000000003,-8.787600000000001
11.72,-12.693200000000001,0.9764,-9.764000000000001
11.73,-13.1814,2.4410000000000003,-8.787600000000001
11.74,-12.205,1.9528,-9.2758
11.75,-13.1814,1.9528,-9.764000000000001
11.76,-13.6696,2.9292000000000002,-9.764000000000001
11.77,-12.205,1.4646000000000001,-9.764000000000001
11.78,-12.693200000000001,1.9528,-10.2522
11.790000000000001,-12.693200000000001,1.4646000000000001,-10.2522
11.8,-12.205,1.4646000000000001,-11.2286
11.81,-12.693200000000001,1.9528,-10.740400000000001
11.82,-12.205,0.9764,-10.2522
11.83,-13.1814,1.4646000000000001,-11.2286
11.84,-12.693200000000001,1.4646000000000001,-10.2522
11.85,-13.1814,0.9764,-11.2286
11.86,-13.6696,0.9764,-10.740400000000001
11.870000000000001,-12.205,1.4646000000000001,-11.716800000000001
11.88,-12.205,0.9764,-11.2286
11.89,-13.1814,0.9764,-11.2286
11.9,-12.693200000000001,0.4882,-10.2522
11.91,-11.716800000000001,0.4882,-11.2286
11.92,-12.693200000000001,0.9764,-11.2286
11.93,-12.205,0.4882,-10.740400000000001
11.94,-12.205,-0.9764,-11.716800000000001
11.950000000000001,-12.693200000000001,0.4882,-11.2286
11.96,-13.6696,0.0,-11.2286
11.97,-13.1814,0.4882,-10.740400000000001
11.98,-13.6696,0.9764,-10.2522
11.99,-12.693200000000001,0.0,-11.2286
12.0,-12.693200000000001,0.0,-11.716800000000001
12.01,-13.6696,-0.4882,-11.2286
12.02,-12.693200000000001,0.0,-10.740400000000001
12.030000000000001,-12.693200000000001,-0.4882,-11.2286
12.040000000000001,-13.6696,0.0,-10.740400000000001
12.05,-13.1814,-0.4882,-10.2522
12.06,-12.693200000000001,0.0,-9.764000000000001
12.07,-14.646,0.0,-9.764000000000001
12.08,-13.6696,0.0,-9.2758
12.09,-13.1814,0.0,-9.764000000000001
12.1,-13.6696,0.0,-8.2994
12.11,-13.6696,-0.9764,-8.787600000000001
12.120000000000001,-14.1578,0.9764,-9.2758
12.13,-13.1814,0.4882,-9.764000000000001
12.14,-14.646,0.0,-9.764000000000001
12.15,-13.6696,0.4882,-8.787600000000001
12.16,-13.6696,-0.4882,-8.787600000000001
12.17,-13.6696,0.4882,-8.787600000000001
12.18,-13.6696,0.9764,-9.2758
12.19,-13.6696,0.4882,-8.787600000000001
12.200000000000001,-14.1578,0.0,-8.2994
12.21,-12.693200000000001,0.9764,-9.2758
12.22,-13.6696,0.9764,-8.2994
12.23,-13.6696,1.4646000000000001,-8.787600000000001
12.24,-13.1814,1.4646000000000001,-8.2994
12.25,-13.1814,1.4646000000000001,-9.2758
12.26,-12.693200000000001,1.9528,-9.2758
12.27,-12.693200000000001,1.4646000000000001,-9.764000000000001
12.280000000000001,-13.1814,1.4646000000000001,-8.787600000000001
12.290000000000001,-12.693200000000001,1.9528,-10.740400000000001
12.3,-12.693200000000001,1.9528,-9.2758
12.31,-13.1814,1.4646000000000001,-10.2522
12.32,-12.205,1.9528,-8.787600000000001
12.33,-13.6696,1.9528,-10.2522
12.34,-12.205,1.4646000000000001,-10.2522
12.35,-12.205,1.4646000000000001,-10.2522
12.36,-11.716800000000001,1.4646000000000001,-9.764000000000001
12.370000000000001,-11.716800000000001,2.9292000000000002,-11.2286
12.38,-12.205,1.9528,-10.2522
12.39,-11.716800000000001,2.4410000000000003,-9.764000000000001
12.4,-12.205,1.4646000000000001,-11.2286
12.41,-12.205,1.9528,-10.2522
12.42,-12.205,1.9528,-10.740400000000001
12.43,-12.205,1.4646000000000001,-10.2522
12.44,-12.205,0.4882,-11.2286
12.450000000000001,-13.1814,0.9764,-10.740400000000001
12.46,-12.693200000000001,0.9764,-11.2286
12.47,-12.205,0.4882,-10.740400000000001
12.48,-11.716800000000001,1.4646000000000001,-11.2286
12.49,-12.205,0.4882,-11.716800000000001
12.5,-12.205,0.4882,-10.2522
12.51,-12.205,-0.4882,-10.740400000000001
12.52,-11.716800000000001,0.4882,-10.2522
12.530000000000001,-12.693200000000001,0.4882,-11.2286
12.540000000000001,-12.693200000000001,0.9764,-11.2286
12.55,-13.1814,0.4882,-10.740400000000001
12.56,-13.6696,0.0,-11.2286
12.57,-13.1814,0.4882,-11.2286
12.58,-13.1814,-0.9764,-10.740400000000001
12.59,-12.693200000000001,0.0,-10.2522
12.6,-12.693200000000001,0.0,-10.740400000000001
12.61,-12.205,-0.4882,-10.740400000000001
12.620000000000001,-12.693200000000001,-0.4882,-10.740400000000001
12.63,-14.1578,0.0,-10.2522
12.64,-13.1814,-0.4882,-10.2522
12.65,-13.1814,-0.4882,-9.764000000000001
12.66,-13.1814,-0.4882,-10.2522
12.67,-13.1814,-0.4882,-9.2758
12.68,-12.693200000000001,-0.4882,-10.740400000000001
12.69,-12.693200000000001,-0.4882,-9.764000000000001
12.700000000000001,-13.6696,-0.4882,-8.2994
12.71,-13.6696,0.4882,-9.2758
12.72,-14.1578,-0.4882,-8.787600000000001
12.73,-12.693200000000001,-0.4882,-9.2758
12.74,-13.1814,-0.4882,-10.740400000000001
12.75,-14.1578,0.0,-8.787600000000001
12.76,-13.1814,0.4882,-8.787600000000001
12.77,-14.1578,0.4882,-9.764000000000001
12.780000000000001,-13.1814,0.9764,-9.2758
12.790000000000001,-13.1814,0.0,-9.2758
12.8,-13.6696,1.4646000000000001,-8.787600000000001
12.81,-13.1814,0.9764,-8.2994
12.82,-13.1814,0.4882,-9.764000000000001
12.83,-13.1814,1.4646000000000001,-9.2758
12.84,-13.1814,0.9764,-9.2758
12.85,-13.6696,1.9528,-8.787600000000001
12.86,-12.693200000000001,1.9528,-8.787600000000001
12.870000000000001,-13.1814,1.4646000000000001,-9.764000000000001
12.88,-12.205,1.4646000000000001,-9.764000000000001
12.89,-11.716800000000001,1.9528,-8.787600000000001
12.9,-13.1814,1.9528,-9.2758
12.91,-12.693200000000001,1.4646000000000001,-9.764000000000001
12.92,-12.205,1.9528,-10.2522
12.93,-12.693200000000001,1.9528,-10.2522
12.94,-12.693200000000001,1.9528,-10.2522
12.950000000000001,-11.716800000000001,0.9764,-9.764000000000001
12.96,-12.205,1.4646000000000001,-9.764000000000001
12.97,-12.693200000000001,2.4410000000000003,-9.764000000000001
12.98,-12.693200000000001,2.4410000000000003,-9.2758
12.99,-13.6696,1.4646000000000001,-10.740400000000001
13.0,-11.716800000000001,1.9528,-9.764000000000001
13.01,-11.2286,1.4646000000000001,-10.2522
13.02,-12.693200000000001,0.4882,-9.764000000000001
13.030000000000001,-11.2286,1.4646000000000001,-10.2522
13.040000000000001,-13.1814,0.9764,-9.764000000000001
13.05,-10.740400000000001,1.4646000000000001,-10.740400000000001
13.06,-11.716800000000001,0.9764,-10.740400000000001
13.07,-11.716800000000001,1.4646000000000001,-10.2522
13.08,-12.693200000000001,1.9528,-10.740400000000001
13.09,-12.205,0.4882,-10.2522
13.1,-12.205,0.4882,-10.740400000000001
13.11,-12.205,0.4882,-11.716800000000001
13.120000000000001,-11.716800000000001,0.4882,-10.740400000000001
13.13,-11.716800000000001,0.4882,-11.716800000000001
13.14,-12.693200000000001,0.0,-11.2286
13.15,-13.1814,0.0,-10.2522
13.16,-12.205,0.0,-11.716800000000001
13.17,-12.693200000000001,-0.4882,-10.740400000000001
13.18,-12.205,0.0,-10.2522
13.19,-12.693200000000001,-0.4882,-11.2286
13.200000000000001,-13.1814,0.4882,-10.2522
13.21,-13.1814,-0.4882,-11.2286
13.22,-12.693200000000001,-0.9764,-10.2522
13.23,-13.6696,-0.4882,-10.740400000000001
13.24,-13.6696,0.0,-10.2522
13.25,-13.1814,-0.9764,-10.2522
13.26,-13.6696,0.4882,-10.740400000000001
13.27,-13.1814,-0.4882,-9.764000000000001
13.280000000000001,-11.2286,-0.4882,-10.2522
13.290000000000001,-13.1814,-1.4646000000000001,-9.764000000000001
13.3,-12.693200000000001,0.4882,-9.2758
13.31,-13.1814,0.0,-9.2758
13.32,-12.693200000000001,-0.9764,-9.764000000000001
13.33,-13.6696,0.0,-8.787600000000001
13.34,-14.1578,0.4882,-10.740400000000001
13.35,-13.1814,-0.4882,-9.764000000000001
13.36,-13.6696,0.0,-9.2758
13.370000000000001,-14.1578,0.0,-9.2758
13.38,-13.1814,-0.4882,-9.2758
13.39,-13.6696,0.0,-9.2758
13.4,-13.6696,1.4646000000000001,-9.2758
13.41,-13.6696,1.4646000000000001,-9.2758
13.42,-12.693200000000001,0.9764,-7.8112
13.43,-13.1814,0.9764,-9.764000000000001
13.44,-12.205,0.9764,-9.2758
13.450000000000001,-13.6696,0.9764,-8.2994
13.46,-12.205,0.9764,-8.2994
13.47,-12.693200000000001,1.4646000000000001,-8.787600000000001
13.48,-12.205,1.4646000000000001,-8.787600000000001
13.49,-13.1814,1.4646000000000001,-7.323
13.5,-12.693200000000001,1.9528,-8.2994
13.51,-13.1814,1.9528,-9.2758
13.52,-12.205,0.9764,-8.787600000000001
13.530000000000001,-12.205,1.9528,-9.2758
13.540000000000001,-12.205,2.4410000000000003,-8.787600000000001
13.55,-12.693200000000001,0.9764,-8.787600000000001
13.56,-12.205,1.4646000000000001,-8.787600000000001
13.57,-11.716800000000001,0.9764,-9.2758
13.58,-12.693200000000001,0.9764,-9.764000000000001
13.59,-12.205,2.4410000000000003,-10.2522
13.6,-11.716800000000001,1.4646000000000001,-9.2758
13.61,-11.2286,1.4646000000000001,-9.2758
13.620000000000001,-11.716800000000001,0.4882,-9.764000000000001
13.63,-11.716800000000001,1.9528,-9.764000000000001
13.64,-12.205,0.4882,-9.764000000000001
13.65,-11.716800000000001,1.4646000000000001,-10.2522
13.66,-12.693200000000001,1.4646000000000001,-10.2522
13.67,-11.716800000000001,0.9764,-10.740400000000001
13.68,-11.716800000000001,0.4882,-10.2522
13.69,-11.716800000000001,0.9764,-10.2522
13.700000000000001,-11.2286,0.9764,-10.2522
13.71,-12.205,0.4882,-10.740400000000001
13.72,-11.716800000000001,0.0,-10.2522
13.73,-12.205,0.9764,-10.740400000000001
13.74,-11.716800000000001,0.9764,-10.2522
13.75,-12.205,0.9764,-10.740400000000001
13.76,-11.716800000000001,0.4882,-11.2286
13.77,-12.693200000000001,0.4882,-10.2522
13.780000000000001,-12.693200000000001,-0.4882,-10.2522
13.790000000000001,-11.2286,0.4882,-10.740400000000001
13.8,-12.205,0.4882,-11.2286
13.81,-12.205,0.0,-11.2286
13.82,-11.716800000000001,-0.9764,-10.2522
13.83,-11.716800000000001,-0.4882,-10.740400000000001
13.84,-12.205,0.0,-9.764000000000001
13.85,-12.205,-0.9764,-10.2522
13.86,-12.693200000000001,-1.4646000000000001,-10.740400000000001
13.870000000000001,-12.205,-0.4882,-10.2522
13.88,-12.693200000000001,-0.4882,-9.764000000000001
13.89,-13.1814,-0.4882,-10.2522
13.9,-13.1814,-0.9764,-9.764000000000001
13.91,-13.6696,-1.4646000000000001,-10.2522
13.92,-12.205,0.0,-10.2522
13.93,-13.1814,-0.4882,-9.2758
13.94,-13.1814,-0.4882,-9.2758
13.950000000000001,-12.693200000000001,-0.9764,-9.2758
13.96,-13.1814,-0.4882,-9.764000000000001
13.97,-13.1814,-0.4882,-8.2994
13.98,-13.6696,0.4882,-9.2758
13.99,-13.1814,-0.4882,-9.2758
14.0,-13.1814,-0.4882,-9.764000000000001
14.01,-13.6696,0.0,-8.787600000000001
14.02,-12.693200000000001,-0.4882,-8.2994
14.030000000000001,-13.1814,-0.4882,-8.787600000000001
14.040000000000001,-13.1814,-0.4882,-8.2994
14.05,-13.1814,0.4882,-9.764000000000001
14.06,-13.6696,0.0,-9.2758
14.07,-12.693200000000001,-0.9764,-8.787600000000001
14.08,-13.6696,0.0,-7.8112
14.09,-13.6696,0.0,-7.8112
14.1,-13.1814,1.4646000000000001,-9.2758
14.11,-14.1578,0.9764,-8.787600000000001
14.120000000000001,-13.6696,0.9764,-9.764000000000001
14.13,-12.693200000000001,0.4882,-8.2994
14.14,-11.716800000000001,0.9764,-8.787600000000001
14.15,-12.205,0.9764,-8.787600000000001
14.16,-12.693200000000001,2.4410000000000003,-8.787600000000001
14.17,-12.205,0.4882,-8.787600000000001
14.18,-12.205,1.4646000000000001,-8.787600000000001
14.19,-12.205,1.4646000000000001,-8.787600000000001
14.200000000000001,-13.1814,2.4410000000000003,-8.787600000000001
14.21,-12.205,0.4882,-9.2758
14.22,-11.716800000000001,2.4410000000000003,-8.787600000000001
14.23,-11.2286,0.4882,-10.2522
14.24,-12.205,2.4410000000000003,-9.764000000000001
14.25,-12.205,0.9764,-9.764000000000001
14.26,-12.205,1.4646000000000001,-9.764000000000001
14.27,-11.716800000000001,1.4646000000000001,-9.2758
14.280000000000001,-11.716800000000001,1.9528,-10.2522
14.290000000000001,-11.716800000000001,1.9528,-9.764000000000001
14.3,-12.693200000000001,1.9528,-9.2758
14.31,-11.2286,1.4646000000000001,-9.2758
14.32,-11.716800000000001,1.4646000000000001,-10.2522
14.33,-11.2286,1.4646000000000001,-9.2758
14.34,-12.205,0.9764,-10.740400000000001
14.35,-11.2286,0.4882,-10.740400000000001
14.36,-11.2286,0.9764,-10.2522
14.370000000000001,-11.2286,0.0,-9.764000000000001
14.38,-11.2286,1.4646000000000001,-9.764000000000001
14.39,-11.716800000000001,0.0,-10.2522
14.4,-11.2286,0.0,-10.740400000000001
14.41,-10.740400000000001,0.9764,-10.2522
14.42,-11.716800000000001,0.4882,-10.740400000000001
14.43,-11.2286,0.9764,-11.716800000000001
14.44,-11.2286,-0.4882,-10.740400000000001
14.450000000000001,-11.716800000000001,0.0,-10.2522
14.46,-11.2286,0.0,-10.740400000000001
14.47,-11.716800000000001,0.0,-9.764000000000001
14.48,-12.205,0.0,-10.2522
14.49,-12.205,-0.4882,-9.764000000000001
14.5,-11.716800000000001,-0.4882,-9.764000000000001
14.51,-12.205,-0.4882,-11.2286
14.52,-12.205,0.4882,-11.716800000000001
14.530000000000001,-11.716800000000001,-0.4882,-9.764000000000001
14.540000000000001,-11.716800000000001,-0.9764,-10.740400000000001
14.55,-12.205,-0.4882,-10.2522
14.56,-12.693200000000001,-0.4882,-9.2758
14.57,-12.205,-0.4882,-9.764000000000001
14.58,-11.716800000000001,-0.4882,-10.740400000000001
14.59,-13.1814,-0.9764,-9.2758
14.6,-13.1814,-1.9528,-9.764000000000001
14.61,-13.1814,-0.9764,-9.764000000000001
14.620000000000001,-13.1814,-0.9764,-9.764000000000001
14.63,-12.693200000000001,-0.4882,-8.787600000000001
14.64,-13.6696,-0.4882,-9.2758
14.65,-13.1814,0.0,-9.2758
14.66,-13.6696,-0.4882,-9.2758
14.67,-13.6696,-0.4882,-8.787600000000001
14.68,-13.1814,0.0,-8.787600000000001
14.69,-12.693200000000001,0.0,-8.787600000000001
14.700000000000001,-13.1814,-0.9764,-8.787600000000001
14.71,-12.693200000000001,-0.4882,-8.2994
14.72,-13.6696,-0.4882,-8.2994
14.73,-13.1814,0.9764,-9.2758
14.74,-12.693200000000001,0.0,-8.2994
14.75,-13.6696,-0.9764,-8.787600000000001
14.76,-12.693200000000001,0.4882,-8.2994
14.77,-13.1814,-0.4882,-8.787600000000001
14.780000000000001,-12.693200000000001,0.4882,-8.787600000000001
14.790000000000001,-12.693200000000001,0.9764,-8.2994
14.8,-13.1814,0.4882,-8.2994
14.81,-13.6696,1.4646000000000001,-8.2994
14.82,-13.1814,0.9764,-8.787600000000001
14.83,-13.1814,0.9764,-8.2994
14.84,-12.693200000000001,0.4882,-8.787600000000001
14.85,-12.693200000000001,0.9764,-7.8112
14.86,-12.205,1.4646000000000001,-8.787600000000001
14.870000000000001,-12.205,1.4646000000000001,-8.2994
14.88,-12.205,1.9528,-7.323
14.89,-12.205,0.9764,-8.2994
14.9,-12.205,1.4646000000000001,-8.2994
14.91,-11.2286,1.4646000000000001,-9.2758
14.92,-12.205,1.4646000000000001,-8.2994
14.93,-11.716800000000001,0.9764,-8.787600000000001
14.94,-10.740400000000001,1.9528,-8.2994
14.950000000000001,-12.205,1.9528,-8.787600000000001
14.96,-13.1814,0.9764,-8.2994
14.97,-11.2286,0.9764,-9.764000000000001
14.98,-12.205,1.4646000000000001,-9.2758
14.99,-11.2286,1.4646000000000001,-9.2758
15.0,-11.2286,2.4410000000000003,-8.787600000000001
15.01,-11.2286,1.9528,-9.2758
15.02,-10.740400000000001,1.4646000000000001,-9.764000000000001
15.030000000000001,-11.716800000000001,1.4646000000000001,-9.2758
15.040000000000001,-11.2286,1.9528,-9.764000000000001
15.05,-12.205,0.4882,-10.740400000000001
15.06,-11.2286,0.9764,-9.764000000000001
15.07,-11.2286,0.4882,-10.2522
15.08,-10.740400000000001,0.9764,-10.740400000000001
15.09,-10.2522,0.4882,-10.740400000000001
15.1,-11.2286,1.4646000000000001,-10.740400000000001
15.11,-11.716800000000001,1.4646000000000001,-10.2522
15.120000000000001,-11.2286,0.4882,-11.2286
15.13,-10.740400000000001,0.9764,-10.740400000000001
15.14,-11.716800000000001,-0.4882,-10.740400000000001
15.15,-10.740400000000001,0.4882,-10.740400000000001
15.16,-11.2286,0.4882,-10.740400000000001
15.17,-12.205,0.4882,-10.740400000000001
15.18,-11.2286,-0.4882,-10.740400000000001
15.19,-11.716800000000001,0.9764,-10.740400000000001
15.200000000000001,-11.2286,0.0,-11.2286
15.21,-11.716800000000001,0.0,-10.740400000000001
15.22,-11.716800000000001,-0.4882,-9.764000000000001
15.23,-11.2286,-0.4882,-10.2522
15.24,-12.205,-0.4882,-10.2522
15.25,-12.205,-0.4882,-10.740400000000001
15.26,-12.205,-0.9764,-9.764000000000001
15.27,-12.693200000000001,-0.4882,-10.740400000000001
15.280000000000001,-11.716800000000001,-0.4882,-10.2522
15.290000000000001,-11.716800000000001,-0.4882,-10.2522
15.3,-13.1814,-0.4882,-11.2286
15.31,-12.205,-0.9764,-10.2522
15.32,-13.1814,0.0,-10.2522
15.33,-12.205,-0.9764,-9.764000000000001
15.34,-12.205,-0.4882,-9.764000000000001
15.35,-12.205,-0.9764,-9.764000000000001
15.36,-13.1814,-1.4646000000000001,-9.764000000000001
15.370000000000001,-13.6696,-0.4882,-9.2758
15.38,-12.693200000000001,-0.4882,-8.787600000000001
15.39,-12.693200000000001,-1.4646000000000001,-9.764000000000001
15.4,-13.1814,-0.9764,-9.2758
15.41,-13.6696,-0.9764,-8.2994
15.42,-13.1814,-0.4882,-8.2994
15.43,-12.205,-0.9764,-8.787600000000001
15.44,-13.1814,0.4882,-8.2994
15.450000000000001,-13.1814,-0.9764,-8.787600000000001
15.46,-13.1814,0.0,-8.2994
15.47,-12.693200000000001,0.4882,-8.787600000000001
15.48,-12.693200000000001,0.0,-7.8112
15.49,-12.693200000000001,-0.4882,-8.787600000000001
15.5,-12.205,0.0,-8.787600000000001
15.51,-12.205,0.4882,-8.2994
15.52,-12.693200000000001,0.0,-7.8112
15.530000000000001,-12.693200000000001,-0.4882,-7.8112
15.540000000000001,-12.205,0.4882,-8.2994
15.55,-11.716800000000001,0.4882,-7.323
15.56,-13.1814,0.4882,-8.787600000000001
15.57,-12.205,0.4882,-7.8112
15.58,-12.693200000000001,0.9764,-7.8112
15.59,-11.716800000000001,0.4882,-8.2994
15.6,-12.693200000000001,0.9764,-8.2994
15.610000000000001,-12.205,0.4882,-8.2994
15.620000000000001,-12.205,1.4646000000000001,-8.2994
15.63,-11.716800000000001,1.9528,-9.2758
15.64,-12.205,1.4646000000000001,-7.8112
15.65,-11.716800000000001,0.9764,-8.787600000000001
15.66,-11.716800000000001,0.9764,-8.2994
15.67,-12.205,0.9764,-8.787600000000001
15.68,-11.716800000000001,1.4646000000000001,-7.8112
15.69,-12.205,1.4646000000000001,-8.787600000000001
15.700000000000001,-12.693200000000001,1.9528,-9.2758
15.71,-11.716800000000001,2.4410000000000003,-9.2758
15.72,-12.205,1.4646000000000001,-9.764000000000001
15.73,-11.716800000000001,1.4646000000000001,-7.8112
15.74,-12.205,0.9764,-9.2758
15.75,-11.716800000000001,1.9528,-9.764000000000001
15.76,-12.205,0.4882,-10.2522
15.77,-10.740400000000001,1.9528,-9.2758
15.780000000000001,-11.716800000000001,1.9528,-9.764000000000001
15.790000000000001,-10.2522,1.4646000000000001,-9.2758
15.8,-10.740400000000001,1.4646000000000001,-9.2758
15.81,-10.740400000000001,0.9764,-9.764000000000001
15.82,-11.2286,1.4646000000000001,-9.2758
15.83,-11.716800000000001,1.4646000000000001,-10.740400000000001
15.84,-11.2286,0.4882,-10.2522
15.85,-11.2286,0.4882,-10.2522
15.860000000000001,-10.2522,0.9764,-9.764000000000001
15.870000000000001,-11.2286,0.4882,-10.2522
15.88,-11.2286,0.0,-10.740400000000001
15.89,-11.2286,0.0,-10.740400000000001
15.9,-11.716800000000001,0.9764,-10.2522
15.91,-11.716800000000001,0.4882,-10.740400000000001
15.92,-12.205,0.4882,-9.764000000000001
15.93,-11.2286,0.4882,-10.2522
15.94,-10.740400000000001,0.9764,-10.740400000000001
15.950000000000001,-10.740400000000001,0.0,-11.2286
15.96,-10.740400000000001,0.0,-10.740400000000001
15.97,-10.740400000000001,-0.4882,-10.740400000000001
15.98,-12.693200000000001,0.0,-10.740400000000001
15.99,-11.2286,0.4882,-10.2522
16.0,-11.2286,-0.9764,-10.2522
16.01,-11.2286,0.4882,-9.764000000000001
16.02,-11.2286,-0.9764,-11.2286
16.03,-12.205,-0.9764,-11.2286
16.04,-11.2286,-1.4646000000000001,-10.2522
16.05,-12.205,-0.4882,-9.764000000000001
16.06,-11.716800000000001,-1.4646000000000001,-10.2522
16.07,-13.6696,-0.9764,-9.764000000000001
16.080000000000002,-12.693200000000001,-0.9764,-9.2758
16.09,-12.205,-1.4646000000000001,-10.740400000000001
16.1,-12.205,-0.9764,-9.2758
16.11,-13.1814,-1.4646000000000001,-10.2522
16.12,-12.205,-1.4646000000000001,-9.764000000000001
16.13,-12.205,-1.4646000000000001,-9.764000000000001
16.14,-12.205,0.0,-9.2758
16.15,-12.205,-0.9764,-8.787600000000001
16.16,-12.693200000000001,-0.9764,-9.2758
16.17,-12.693200000000001,-0.9764,-9.764000000000001
16.18,-13.1814,-0.9764,-8.2994
16.19,-12.693200000000001,-0.4882,-9.764000000000001
16.2,-12.693200000000001,-0.9764,-9.2758
16.21,-13.1814,-1.4646000000000001,-9.2758
16.22,-13.1814,-0.4882,-8.787600000000001
16.23,-13.6696,-0.4882,-9.2758
16.240000000000002,-12.693200000000001,-0.4882,-8.2994
16.25,-12.205,-0.4882,-8.787600000000001
16.26,-12.693200000000001,-0.4882,-8.2994
16.27,-12.693200000000001,-0.4882,-8.2994
16.28,-13.1814,0.4882,-8.2994
16.29,-12.693200000000001,-0.4882,-7.8112
16.3,-13.1814,-0.4882,-8.2994
16.31,-13.1814,0.9764,-7.8112
16.32,-13.6696,0.0,-8.787600000000001
16.330000000000002,-12.693200000000001,0.9764,-7.8112
16.34,-12.693200000000001,0.0,-8.787600000000001
16.35,-13.1814,0.9764,-8.2994
16.36,-12.693200000000001,0.0,-8.2994
16.37,-11.716800000000001,0.9764,-7.8112
16.38,-12.693200000000001,0.0,-7.8112
16.39,-12.205,0.4882,-7.8112
16.4,-12.693200000000001,0.4882,-7.8112
16.41,-11.716800000000001,0.9764,-8.787600000000001
16.42,-11.2286,1.4646000000000001,-7.8112
16.43,-12.693200000000001,0.9764,-8.787600000000001
16.44,-12.693200000000001,0.9764,-7.8112
16.45,-11.2286,1.4646000000000001,-8.787600000000001
16.46,-11.2286,1.9528,-8.787600000000001
16.47,-12.205,1.4646000000000001,-8.787600000000001
16.48,-11.716800000000001,1.9528,-7.8112
16.490000000000002,-12.205,0.9764,-8.787600000000001
16.5,-11.2286,0.4882,-8.2994
16.51,-11.716800000000001,1.9528,-8.787600000000001
16.52,-11.716800000000001,1.4646000000000001,-8.2994
16.53,-10.740400000000001,1.9528,-8.787600000000001
16.54,-11.716800000000001,0.9764,-9.2758
16.55,-11.2286,1.4646000000000001,-8.787600000000001
16.56,-10.2522,0.9764,-9.2758
16.57,-11.2286,1.4646000000000001,-9.2758
16.580000000000002,-10.2522,1.4646000000000001,-8.2994
16.59,-10.740400000000001,0.9764,-9.2758
16.6,-11.2286,1.4646000000000001,-8.787600000000001
16.61,-11.716800000000001,2.9292000000000002,-8.787600000000001
16.62,-10.740400000000001,0.9764,-10.740400000000001
16.63,-11.2286,0.0,-9.764000000000001
16.64,-11.716800000000001,1.4646000000000001,-10.2522
16.65,-10.740400000000001,0.9764,-10.2522
16.66,-10.740400000000001,0.9764,-10.740400000000001
16.67,-10.740400000000001,0.9764,-9.764000000000001
16.68,-10.740400000000001,0.4882,-10.740400000000001
16.69,-11.2286,0.9764,-9.764000000000001
16.7,-10.740400000000001,0.4882,-9.764000000000001
16.71,-11.2286,0.0,-10.2522
16.72,-10.2522,0.9764,-10.740400000000001
16.73,-10.740400000000001,0.4882,-11.2286
16.740000000000002,-10.2522,0.0,-11.2286
16.75,-10.740400000000001,0.9764,-10.740400000000001
16.76,-11.2286,0.4882,-10.2522
16.77,-10.740400000000001,0.4882,-10.740400000000001
16.78,-10.2522,0.9764,-9.764000000000001
16.79,-12.205,-0.4882,-10.740400000000001
16.8,-11.2286,0.0,-10.740400000000001
16.81,-10.2522,-0.4882,-9.2758
16.82,-11.716800000000001,-0.9764,-11.2286
16.830000000000002,-11.2286,0.0,-10.2522
16.84,-11.716800000000001,-1.4646000000000001,-10.2522
16.85,-11.2286,-0.9764,-10.740400000000001
16.86,-11.716800000000001,-0.4882,-10.2522
16.87,-12.205,-0.9764,-11.2286
16.88,-11.716800000000001,-1.4646000000000001,-10.2522
16.89,-11.2286,-0.9764,-10.740400000000001
16.9,-11.716800000000001,-0.9764,-9.764000000000001
16.91,-11.2286,-1.4646000000000001,-10.2522
16.92,-11.2286,-0.9764,-10.2522
16.93,-11.716800000000001,-1.9528,-9.764000000000001
16.94,-11.716800000000001,-1.4646000000000001,-10.2522
16.95,-12.205,-1.4646000000000001,-9.2758
16.96,-11.2286,-1.4646000000000001,-9.764000000000001
16.97,-12.205,-0.9764,-9.2758
16.98,-12.693200000000001,-0.9764,-8.787600000000001
16.990000000000002,-13.1814,-0.9764,-9.2758
17.0,-11.716800000000001,-1.9528,-9.2758
17.01,-12.693200000000001,-1.4646000000000001,-8.787600000000001
17.02,-12.693200000000001,-1.4646000000000001,-9.2758
17.03,-12.205,-1.4646000000000001,-8.2994
17.04,-12.205,-0.9764,-9.2758
17.05,-12.693200000000001,-1.9528,-9.2758
17.06,-12.693200000000001,-0.9764,-8.2994
17.07,-12.693200000000001,-0.9764,-9.2758
17.080000000000002,-12.693200000000001,0.0,-8.2994
17.09,-12.205,-1.4646000000000001,-8.787600000000001
17.1,-13.1814,-1.4646000000000001,-8.2994
17.11,-13.1814,-0.4882,-8.2994
17.12,-12.693200000000001,-0.9764,-8.2994
17.13,-12.693200000000001,0.0,-8.2994
17.14,-13.1814,-1.4646000000000001,-9.2758
17.150000000000002,-12.693200000000001,-0.4882,-8.2994
17.16,-12.205,0.0,-7.8112
17.17,-12.693200000000001,0.0,-8.2994
17.18,-12.205,0.0,-7.323
17.19,-12.693200000000001,-0.4882,-8.2994
17.2,-13.1814,0.0,-8.2994
17.21,-11.716800000000001,0.0,-7.8112
17.22,-11.2286,0.4882,-7.323
17.23,-12.205,0.0,-7.8112
17.240000000000002,-12.693200000000001,0.4882,-7.8112
17.25,-12.693200000000001,0.4882,-7.8112
17.26,-12.205,0.9764,-8.2994
17.27,-12.205,0.9764,-7.323
17.28,-11.716800000000001,1.4646000000000001,-7.323
17.29,-12.693200000000001,0.9764,-6.8348
17.3,-11.716800000000001,0.9764,-7.8112
17.31,-11.2286,1.4646000000000001,-7.8112
17.32,-11.2286,0.9764,-8.787600000000001
17.330000000000002,-12.693200000000001,1.9528,-8.787600000000001
17.34,-12.205,0.9764,-7.8112
17.35,-11.716800000000001,0.9764,-7.8112
17.36,-12.205,2.4410000000000003,-7.8112
17.37,-12.205,0.9764,-8.787600000000001
17.38,-11.2286,1.4646000000000001,-8.787600000000001
17.39,-11.2286,1.9528,-8.2994
17.400000000000002,-11.2286,0.9764,-7.8112
17.41,-10.740400000000001,1.9528,-9.764000000000001
17.42,-11.2286,1.9528,-8.787600000000001
17.43,-11.2286,1.4646000000000001,-8.2994
17.44,-11.716800000000001,1.4646000000000001,-8.787600000000001
17.45,-10.740400000000001,1.4646000000000001,-8.787600000000001
17.46,-10.2522,1.9528,-8.787600000000001
17.47,-10.740400000000001,1.9528,-8.2994
17.48,-10.740400000000001,0.9764,-9.764000000000001
17.490000000000002,-10.740400000000001,0.9764,-9.764000000000001
17.5,-10.2522,0.9764,-9.2758
17.51,-10.2522,1.4646000000000001,-9.764000000000001
17.52,-10.740400000000001,1.4646000000000001,-8.787600000000001
17.53,-10.740400000000001,1.4646000000000001,-9.764000000000001
17.54,-10.2522,0.9764,-9.2758
17.55,-10.740400000000001,0.9764,-10.2522
17.56,-10.740400000000001,1.4646000000000001,-10.2522
17.57,-10.740400000000001,1.4646000000000001,-9.764000000000001
17.580000000000002,-10.740400000000001,0.4882,-9.764000000000001
17.59,-10.740400000000001,0.9764,-9.764000000000001
17.6,-11.2286,0.4882,-10.740400000000001
17.61,-11.2286,1.4646000000000001,-10.2522
17.62,-11.716800000000001,0.4882,-10.2522
17.63,-11.2286,0.9764,-10.2522
17.64,-10.740400000000001,0.9764,-10.740400000000001
17.650000000000002,-10.740400000000001,0.0,-11.2286
17.66,-9.764000000000001,0.4882,-11.2286
17.67,-10.740400000000001,0.4882,-11.2286
17.68,-11.2286,-0.4882,-10.2522
17.69,-11.716800000000001,-0.4882,-10.740400000000001
17.7,-10.2522,-1.4646000000000001,-10.740400000000001
17.71,-11.2286,-0.9764,-10.2522
17.72,-10.2522,-0.4882,-10.740400000000001
17.73,-10.2522,0.0,-10.2522
17.740000000000002,-11.2286,0.0,-10.2522
17.75,-11.2286,-0.9764,-10.740400000000001
17.76,-11.2286,-0.9764,-9.764000000000001
17.77,-10.740400000000001,0.0,-10.740400000000001
17.78,-11.716800000000001,-0.9764,-9.764000000000001
17.79,-11.2286,-0.9764,-10.740400000000001
17.8,-11.716800000000001,-1.4646000000000001,-10.740400000000001
17.81,-11.716800000000001,-0.4882,-11.2286
17.82,-11.716800000000001,-1.4646000000000001,-10.2522
17.830000000000002,-11.716800000000001,-0.9764,-9.764000000000001
17.84,-12.205,-0.9764,-10.2522
17.85,-11.716800000000001,-1.4646000000000001,-10.2522
17.86,-11.2286,-1.4646000000000001,-10.740400000000001
17.87,-12.205,-0.9764,-9.764000000000001
17.88,-12.205,-1.4646000000000001,-10.2522
17.89,-12.693200000000001,-1.4646000000000001,-9.764000000000001
17.900000000000002,-12.205,-0.9764,-9.764000000000001
17.91,-11.716800000000001,-1.4646000000000001,-9.764000000000001
17.92,-11.716800000000001,-1.4646000000000001,-9.2758
17.93,-12.693200000000001,-1.9528,-9.764000000000001
17.94,-11.716800000000001,-1.4646000000000001,-9.2758
17.95,-12.205,-1.4646000000000001,-8.787600000000001
17.96,-12.205,-1.4646000000000001,-9.2758
17.97,-11.716800000000001,-1.9528,-9.2758
17.98,-12.205,-1.4646000000000001,-9.2758
17.990000000000002,-12.693200000000001,-1.4646000000000001,-9.764000000000001
18.0,-12.693200000000001,-0.9764,-8.787600000000001
18.01,-12.693200000000001,-0.9764,-9.2758
18.02,-12.693200000000001,-1.4646000000000001,-8.2994
18.03,-11.716800000000001,-1.4646000000000001,-7.8112
18.04,-12.205,-1.4646000000000001,-8.787600000000001
18.05,-12.693200000000001,-0.4882,-7.8112
18.06,-12.205,-0.9764,-9.2758
18.07,-12.693200000000001,-1.4646000000000001,-7.8112
18.080000000000002,-12.205,-1.4646000000000001,-8.787600000000001
18.09,-13.6696,-1.4646000000000001,-8.2994
18.1,-12.205,-0.4882,-7.323
18.11,-13.1814,-0.4882,-8.2994
18.12,-12.693200000000001,-0.4882,-8.2994
18.13,-12.205,-0.4882,-8.2994
18.14,-12.693200000000001,0.0,-8.2994
18.150000000000002,-13.6696,0.0,-7.8112
18.16,-12.693200000000001,0.4882,-7.323
18.17,-13.6696,0.0,-7.323
18.18,-11.2286,-0.4882,-7.323
18.19,-11.716800000000001,0.0,-7.8112
18.2,-12.693200000000001,0.4882,-7.323
18.21,-12.693200000000001,0.4882,-7.8112
18.22,-12.693200000000001,0.9764,-8.2994
18.23,-13.1814,0.9764,-7.8112
18.240000000000002,-12.205,0.4882,-7.8112
18.25,-12.205,0.4882,-7.8112
18.26,-11.716800000000001,0.4882,-8.2994
18.27,-12.205,0.4882,-7.8112
18.28,-12.693200000000001,0.4882,-8.2994
18.29,-12.205,1.4646000000000001,-8.2994
18.3,-12.205,0.9764,-7.323
18.31,-11.2286,0.4882,-8.2994
18.32,-11.2286,2.9292000000000002,-8.2994
18.330000000000002,-11.2286,0.4882,-7.8112
18.34,-11.716800000000001,1.4646000000000001,-7.8112
18.35,-11.716800000000001,2.9292000000000002,-8.787600000000001
18.36,-11.2286,1.9528,-8.2994
18.37,-11.2286,1.4646000000000001,-8.787600000000001
18.38,-11.716800000000001,0.9764,-7.8112
18.39,-11.2286,1.9528,-7.8112
18.400000000000002,-10.740400000000001,2.4410000000000003,-8.2994
18.41,-10.2522,1.4646000000000001,-8.2994
18.42,-11.2286,0.9764,-9.764000000000001
18.43,-11.2286,1.4646000000000001,-8.787600000000001
18.44,-10.2522,2.4410000000000003,-8.787600000000001
18.45,-11.2286,1.4646000000000001,-9.2758
18.46,-10.740400000000001,1.4646000000000001,-9.2758
18.47,-10.2522,1.9528,-8.787600000000001
18.48,-10.740400000000001,1.4646000000000001,-8.2994
18.490000000000002,-11.2286,1.9528,-9.764000000000001
18.5,-10.740400000000001,1.4646000000000001,-9.2758
18.51,-10.2522,0.9764,-8.787600000000001
18.52,-10.740400000000001,1.4646000000000001,-10.2522
18.53,-10.2522,0.9764,-9.2758
18.54,-9.2758,0.4882,-9.764000000000001
18.55,-10.2522,1.4646000000000001,-9.764000000000001
18.56,-10.740400000000001,-0.4882,-10.2522
18.57,-10.740400000000001,0.9764,-9.2758
18.580000000000002,-10.2522,0.9764,-8.787600000000001
18.59,-10.740400000000001,0.4882,-10.2522
18.6,-10.740400000000001,0.9764,-9.2758
18.61,-10.2522,1.4646000000000001,-10.2522
18.62,-10.2522,0.4882,-9.764000000000001
18.63,-10.740400000000001,0.9764,-10.740400000000001
18.64,-10.2522,0.4882,-9.764000000000001
18.650000000000002,-10.2522,0.9764,-10.2522
18.66,-10.740400000000001,0.0,-10.2522
18.67,-10.740400000000001,0.0,-10.2522
18.68,-10.740400000000001,0.0,-9.764000000000001
18.69,-11.2286,-0.4882,-10.2522
18.7,-10.740400000000001,-0.4882,-10.740400000000001
18.71,-10.2522,-0.4882,-10.2522
18.72,-10.740400000000001,0.0,-9.764000000000001
18.73,-11.2286,-0.4882,-10.2522
18.740000000000002,-10.2522,-0.9764,-10.740400000000001
18.75,-10.740400000000001,-1.4646000000000001,-10.2522
18.76,-10.2522,-0.4882,-10.2522
18.77,-10.740400000000001,-0.4882,-10.740400000000001
18.78,-11.2286,-0.4882,-10.2522
18.79,-12.205,-0.4882,-10.740400000000001
18.8,-9.764000000000001,-0.4882,-11.716800000000001
18.81,-11.716800000000001,-1.9528,-10.2522
18.82,-11.2286,-0.9764,-10.740400000000001
18.830000000000002,-11.716800000000001,-0.9764,-10.2522
18.84,-10.740400000000001,-0.9764,-10.740400000000001
18.85,-10.740400000000001,-1.9528,-10.740400000000001
18.86,-11.2286,-0.9764,-9.764000000000001
18.87,-11.716800000000001,-1.4646000000000001,-9.764000000000001
18.88,-12.205,-0.9764,-10.2522
18.89,-12.205,-0.9764,-10.740400000000001
18.900000000000002,-12.205,-1.4646000000000001,-10.2522
18.91,-12.205,-0.9764,-9.2758
18.92,-11.716800000000001,-1.9528,-10.2522
18.93,-11.716800000000001,-1.9528,-9.764000000000001
18.94,-12.205,-2.4410000000000003,-9.764000000000001
18.95,-12.205,-1.4646000000000001,-9.764000000000001
18.96,-12.693200000000001,-1.4646000000000001,-9.2758
18.97,-12.693200000000001,-0.9764,-11.2286
18.98,-11.716800000000001,-1.4646000000000001,-8.787600000000001
18.990000000000002,-12.205,-1.9528,-8.787600000000001
19.0,-12.205,-0.9764,-9.2758
19.01,-12.205,-1.9528,-7.8112
19.02,-12.693200000000001,-0.9764,-8.787600000000001
19.03,-12.693200000000001,-1.4646000000000001,-9.764000000000001
19.04,-12.205,-1.4646000000000001,-9.2758
19.05,-12.693200000000001,-1.9528,-8.787600000000001
19.06,-12.205,-0.9764,-9.764000000000001
19.07,-11.716800000000001,-1.9528,-8.787600000000001
19.080000000000002,-12.205,-1.9528,-8.2994
19.09,-12.693200000000001,-1.4646000000000001,-8.2994
19.1,-12.205,-1.4646000000000001,-8.2994
19.11,-12.205,-0.4882,-8.787600000000001
19.12,-12.693200000000001,-1.4646000000000001,-8.2994
19.13,-12.693200000000001,-1.4646000000000001,-8.2994
19.14,-12.693200000000001,-1.4646000000000001,-7.8112
19.150000000000002,-13.1814,-0.9764,-7.323
19.16,-11.716800000000001,-0.9764,-8.2994
19.17,-12.693200000000001,-0.4882,-7.323
19.18,-12.205,-0.9764,-7.8112
19.19,-12.693200000000001,0.0,-6.8348
19.2,-12.205,-0.9764,-7.8112
19.21,-11.716800000000001,-0.9764,-7.8112
19.22,-12.205,-0.4882,-8.2994
19.23,-12.693200000000001,-0.4882,-7.323
19.240000000000002,-12.205,-0.4882,-7.323
19.25,-12.205,-0.4882,-8.2994
19.26,-12.205,0.0,-7.323
19.27,-12.205,-0.4882,-6.8348
19.28,-12.205,0.9764,-7.323
19.29,-12.205,0.0,-6.8348
19.3,-12.205,0.4882,-7.323
19.31,-12.205,0.9764,-7.323
19.32,-11.716800000000001,0.9764,-6.8348
19.330000000000002,-12.205,-0.4882,-7.8112
19.34,-11.2286,0.9764,-7.8112
19.35,-11.716800000000001,0.9764,-7.323
19.36,-12.693200000000001,0.9764,-6.8348
19.37,-11.2286,0.9764,-7.8112
19.38,-11.716800000000001,0.9764,-6.8348
19.39,-12.205,0.9764,-7.323
19.400000000000002,-11.716800000000001,0.9764,-8.2994
19.41,-12.693200000000001,1.4646000000000001,-6.8348
19.42,-11.716800000000001,1.4646000000000001,-8.2994
19.43,-11.716800000000001,0.9764,-7.8112
19.44,-11.2286,0.4882,-7.8112
19.45,-12.205,2.4410000000000003,-7.8112
19.46,-11.2286,1.9528,-6.8348
19.47,-11.2286,1.4646000000000001,-8.2994
19.48,-11.2286,1.4646000000000001,-7.8112
19.490000000000002,-11.716800000000001,1.4646000000000001,-7.8112
19.5,-11.2286,1.9528,-8.2994
19.51,-10.740400000000001,0.4882,-8.2994
19.52,-10.740400000000001,1.4646000000000001,-8.2994
19.53,-10.740400000000001,0.9764,-8.2994
19.54,-10.740400000000001,2.4410000000000003,-7.8112
19.55,-11.2286,2.4410000000000003,-8.787600000000001
19.56,-10.740400000000001,1.9528,-9.2758
19.57,-10.740400000000001,0.4882,-9.2758
19.580000000000002,-11.2286,1.9528,-9.2758
19.59,-10.740400000000001,1.4646000000000001,-8.787600000000001
19.6,-10.740400000000001,0.9764,-9.2758
19.61,-10.740400000000001,1.4646000000000001,-8.787600000000001
19.62,-10.2522,1.4646000000000001,-9.764000000000001
19.63,-10.2522,1.4646000000000001,-9.2758
19.64,-10.2522,0.0,-8.787600000000001
19.650000000000002,-10.740400000000001,1.4646000000000001,-9.2758
19.66,-10.740400000000001,1.4646000000000001,-9.764000000000001
19.67,-9.2758,0.9764,-9.764000000000001
19.68,-10.2522,0.9764,-9.764000000000001
19.69,-10.2522,0.9764,-10.2522
19.7,-10.740400000000001,1.4646000000000001,-10.740400000000001
19.71,-8.787600000000001,0.9764,-9.764000000000001
19.72,-9.764000000000001,0.4882,-9.764000000000001
19.73,-10.2522,0.9764,-10.2522
19.740000000000002,-10.2522,0.0,-10.2522
19.75,-10.2522,0.9764,-9.764000000000001
19.76,-9.764000000000001,0.9764,-9.764000000000001
19.77,-10.2522,0.4882,-11.2286
19.78,-10.740400000000001,1.4646000000000001,-10.2522
19.79,-10.2522,-0.4882,-10.2522
19.8,-9.764000000000001,0.4882,-10.2522
19.81,-10.2522,0.0,-9.764000000000001
19.82,-10.2522,-0.4882,-9.764000000000001
19.830000000000002,-10.2522,0.0,-10.740400000000001
19.84,-9.764000000000001,0.4882,-10.2522
19.85,-10.2522,0.0,-10.740400000000001
19.86,-11.716800000000001,-0.4882,-10.2522
19.87,-10.2522,0.4882,-10.2522
19.88,-11.2286,-0.4882,-10.2522
19.89,-10.740400000000001,0.0,-11.2286
19.900000000000002,-11.716800000000001,-0.4882,-10.2522
19.91,-9.764000000000001,0.0,-10.2522
19.92,-10.740400000000001,-0.9764,-11.716800000000001
19.93,-10.2522,-0.9764,-10.740400000000001
19.94,-10.740400000000001,-0.9764,-10.2522
19.95,-10.2522,-0.9764,-10.2522
19.96,-11.716800000000001,-0.9764,-10.2522
19.97,-11.2286,-1.4646000000000001,-10.740400000000001
19.98,-11.2286,-1.9528,-10.740400000000001
19.990000000000002,-10.740400000000001,-1.4646000000000001,-10.2522
20.0,-10.740400000000001,-1.9528,-11.2286
20.01,-11.2286,-0.9764,-10.2522
20.02,-10.740400000000001,-1.9528,-10.2522
20.03,-11.2286,-1.9528,-10.2522
20.04,-10.740400000000001,-2.9292000000000002,-9.2758
20.05,-10.2522,-1.4646000000000001,-11.2286
20.06,-10.740400000000001,-1.4646000000000001,-9.2758
20.07,-11.716800000000001,-1.9528,-9.764000000000001
20.080000000000002,-11.716800000000001,-1.9528,-10.2522
20.09,-11.2286,-0.9764,-10.740400000000001
20.1,-11.716800000000001,-2.4410000000000003,-9.764000000000001
20.11,-11.716800000000001,-1.4646000000000001,-10.2522
20.12,-11.2286,-2.4410000000000003,-9.764000000000001
20.13,-11.716800000000001,-1.4646000000000001,-9.764000000000001
20.14,-11.716800000000001,-1.9528,-10.2522
20.150000000000002,-12.205,-1.4646000000000001,-9.2758
20.16,-12.205,-1.9528,-9.764000000000001
20.17,-12.205,-2.4410000000000003,-9.764000000000001
20.18,-12.205,-1.9528,-9.2758
20.19,-12.205,-1.4646000000000001,-9.2758
20.2,-13.1814,-1.9528,-9.764000000000001
20.21,-12.205,-2.4410000000000003,-8.787600000000001
20.22,-11.716800000000001,-2.4410000000000003,-8.2994
20.23,-12.205,-1.9528,-8.2994
20.240000000000002,-11.716800000000001,-1.9528,-9.2758
20.25,-11.716800000000001,-0.4882,-8.787600000000001
20.26,-12.693200000000001,-1.4646000000000001,-8.2994
20.27,-12.205,-1.9528,-7.8112
20.28,-12.693200000000001,-0.4882,-8.2994
20.29,-12.205,-1.4646000000000001,-7.8112
20.3,-11.716800000000001,-0.4882,-8.2994
20.31,-12.693200000000001,-1.4646000000000001,-8.2994
20.32,-11.716800000000001,-1.9528,-8.2994
20.330000000000002,-12.693200000000001,-1.4646000000000001,-8.787600000000001
20.34,-12.693200000000001,-1.4646000000000001,-7.8112
20.35,-12.693200000000001,-0.9764,-7.8112
20.36,-12.693200000000001,-1.4646000000000001,-8.2994
20.37,-12.205,-0.9764,-7.8112
20.38,-11.716800000000001,-1.4646000000000001,-7.323
20.39,-12.205,-0.4882,-7.8112
20.400000000000002,-12.693200000000001,-0.9764,-7.323
20.41,-12.205,-0.4882,-7.8112
20.42,-11.2286,0.0,-6.8348
20.43,-11.716800000000001,-0.9764,-7.8112
20.44,-11.2286,-0.4882,-7.8112
20.45,-12.693200000000001,-0.9764,-7.323
20.46,-12.693200000000001,-0.4882,-7.323
20.47,-12.205,-0.4882,-7.323
20.48,-12.205,-0.4882,-7.323
20.490000000000002,-12.693200000000001,-0.4882,-7.323
20.5,-12.205,-0.4882,-6.8348
20.51,-12.205,0.0,-7.323
20.52,-12.693200000000001,0.0,-7.323
20.53,-12.693200000000001,0.4882,-6.8348
20.54,-12.205,0.4882,-7.323
20.55,-12.693200000000001,0.4882,-7.8112
20.56,-11.716800000000001,-0.4882,-7.323
20.57,-11.2286,0.4882,-7.323
20.580000000000002,-11.716800000000001,0.9764,-6.8348
20.59,-11.2286,0.4882,-7.8112
20.6,-12.205,1.4646000000000001,-6.8348
20.61,-11.716800000000001,0.9764,-7.323
20.62,-12.205,1.4646000000000001,-7.8112
20.63,-11.2286,0.0,-7.323
20.64,-12.205,0.9764,-7.323
20.650000000000002,-11.716800000000001,0.4882,-8.2994
20.66,-11.716800000000001,0.9764,-7.8112
20.67,-12.205,1.4646000000000001,-7.8112
20.68,-12.205,0.4882,-8.2994
20.69,-11.2286,1.9528,-7.323
20.7,-10.2522,0.9764,-7.323
20.71,-11.2286,0.9764,-7.8112
20.72,-11.2286,1.4646000000000001,-8.2994
20.73,-11.2286,2.9292000000000002,-8.2994
20.740000000000002,-11.2286,0.9764,-8.787600000000001
20.75,-10.740400000000001,2.4410000000000003,-8.787600000000001
20.76,-10.740400000000001,1.9528,-7.8112
20.77,-10.740400000000001,2.9292000000000002,-8.2994
20.78,-10.2522,0.9764,-8.2994
20.79,-11.2286,1.9528,-8.2994
20.8,-10.740400000000001,1.9528,-7.323
20.81,-10.2522,1.4646000000000001,-8.787600000000001
20.82,-10.740400000000001,1.4646000000000001,-8.787600000000001
20.830000000000002,-10.2522,1.4646000000000001,-8.2994
20.84,-10.740400000000001,1.4646000000000001,-7.8112
20.85,-11.2286,0.9764,-7.8112
20.86,-10.740400000000001,1.4646000000000001,-9.2758
20.87,-10.2522,1.9528,-8.787600000000001
20.88,-10.2522,1.4646000000000001,-8.787600000000001
20.89,-9.764000000000001,2.4410000000000003,-8.787600000000001
20.900000000000002,-9.764000000000001,1.9528,-9.764000000000001
20.91,-10.2522,0.9764,-9.764000000000001
20.92,-9.764000000000001,0.9764,-9.764000000000001
20.93,-10.2522,0.4882,-9.2758
20.94,-9.764000000000001,1.9528,-9.2758
20.95,-10.740400000000001,0.9764,-9.2758
20.96,-9.2758,0.4882,-9.2758
20.97,-9.764000000000001,0.9764,-8.787600000000001
20.98,-10.2522,1.4646000000000001,-9.2758
20.990000000000002,-9.2758,1.4646000000000001,-10.740400000000001
21.0,-9.764000000000001,1.4646000000000001,-10.2522
21.01,-9.2758,1.4646000000000001,-10.2522
21.02,-10.2522,0.9764,-10.2522
21.03,-10.2522,0.9764,-9.764000000000001
21.04,-9.2758,0.4882,-10.740400000000001
21.05,-10.2522,0.4882,-10.740400000000001
21.06,-8.787600000000001,0.9764,-9.764000000000001
21.07,-9.2758,0.0,-10.740400000000001
21.080000000000002,-9.2758,0.9764,-10.740400000000001
21.09,-9.764000000000001,0.4882,-10.2522
21.1,-10.2522,0.4882,-10.2522
21.11,-9.764000000000001,1.4646000000000001,-10.2522
21.12,-9.764000000000001,-0.4882,-10.2522
21.13,-9.764000000000001,-0.4882,-10.740400000000001
21.14,-9.764000000000001,0.0,-11.2286
21.150000000000002,-9.2758,0.9764,-10.740400000000001
21.16,-9.2758,0.4882,-10.2522
21.17,-9.2758,-0.4882,-11.2286
21.18,-10.2522,0.0,-10.2522
21.19,-9.764000000000001,-0.9764,-10.740400000000001
21.2,-10.2522,0.4882,-11.2286
21.21,-10.2522,-0.9764,-10.2522
21.22,-10.2522,0.0,-10.740400000000001
21.23,-10.2522,-0.4882,-10.2522
21.240000000000002,-10.2522,-0.9764,-10.740400000000001
21.25,-11.2286,-0.4882,-11.716800000000001
21.26,-10.2522,-0.9764,-11.2286
21.27,-11.2286,-0.9764,-10.740400000000001
21.28,-10.2522,-0.9764,-10.740400000000001
21.29,-9.764000000000001,-0.9764,-10.2522
21.3,-11.2286,-1.9528,-10.740400000000001
21.31,-10.740400000000001,-1.4646000000000001,-10.740400000000001
21.32,-11.2286,-1.4646000000000001,-10.740400000000001
21.330000000000002,-11.2286,-1.4646000000000001,-9.764000000000001
21.34,-10.740400000000001,-1.4646000000000001,-11.2286
21.35,-10.740400000000001,-1.4646000000000001,-10.740400000000001
21.36,-11.2286,-1.4646000000000001,-10.2522
21.37,-11.2286,-0.9764,-10.740400000000001
21.38,-10.2522,-1.9528,-9.764000000000001
21.39,-10.740400000000001,-0.9764,-10.2522
21.400000000000002,-10.740400000000001,-1.9528,-10.740400000000001
21.41,-11.716800000000001,-2.4410000000000003,-9.764000000000001
21.42,-11.2286,-1.4646000000000001,-9.764000000000001
21.43,-11.2286,-1.9528,-10.2522
21.44,-10.740400000000001,-1.4646000000000001,-9.764000000000001
21.45,-11.2286,-2.4410000000000003,-10.2522
21.46,-11.2286,-2.4410000000000003,-9.764000000000001
21.47,-11.2286,-1.9528,-10.740400000000001
21.48,-11.716800000000001,-1.4646000000000001,-9.764000000000001
21.490000000000002,-12.205,-2.4410000000000003,-10.2522
21.5,-12.205,-2.4410000000000003,-9.764000000000001
21.51,-11.716800000000001,-2.9292000000000002,-9.764000000000001
21.52,-11.2286,-1.4646000000000001,-9.2758
21.53,-11.716800000000001,-1.9528,-10.740400000000001
21.54,-12.205,-1.9528,-9.2758
21.55,-12.205,-2.4410000000000003,-9.2758
21.56,-12.693200000000001,-2.4410000000000003,-8.787600000000001
21.57,-11.716800000000001,-2.4410000000000003,-10.2522
21.580000000000002,-12.205,-2.9292000000000002,-9.2758
21.59,-12.693200000000001,-2.9292000000000002,-9.764000000000001
21.6,-12.205,-2.4410000000000003,-9.2758
21.61,-11.2286,-2.9292000000000002,-9.764000000000001
21.62,-11.2286,-2.4410000000000003,-9.2758
21.63,-12.205,-2.9292000000000002,-8.2994
21.64,-12.205,-2.9292000000000002,-8.787600000000001
21.650000000000002,-11.716800000000001,-1.9528,-8.2994
21.66,-12.205,-2.4410000000000003,-8.787600000000001
21.67,-12.693200000000001,-1.9528,-9.764000000000001
21.68,-13.1814,-2.9292000000000002,-7.323
21.69,-12.205,-1.9528,-9.2758
21.7,-12.205,-2.4410000000000003,-8.2994
21.71,-13.1814,-1.9528,-9.2758
21.72,-12.693200000000001,-1.9528,-8.2994
21.73,-12.205,-1.9528,-8.2994
21.740000000000002,-12.693200000000001,-1.4646000000000001,-8.787600000000001
21.75,-12.205,-1.9528,-7.8112
21.76,-12.693200000000001,-0.9764,-8.2994
21.77,-12.693200000000001,-1.9528,-8.2994
21.78,-12.693200000000001,-1.9528,-7.323
21.79,-13.1814,-1.9528,-7.323
21.8,-12.205,-1.4646000000000001,-7.8112
21.81,-13.1814,-1.4646000000000001,-7.8112
21.82,-13.1814,-1.9528,-7.323
21.830000000000002,-12.205,-1.9528,-6.3466000000000005
21.84,-12.693200000000001,-0.9764,-7.8112
21.85,-12.693200000000001,-0.9764,-7.323
21.86,-12.693200000000001,-1.4646000000000001,-7.8112
21.87,-12.693200000000001,-1.4646000000000001,-6.8348
21.88,-12.205,0.0,-6.3466000000000005
21.89,-12.205,-1.4646000000000001,-6.8348
21.900000000000002,-12.205,-0.4882,-6.8348
21.91,-11.716800000000001,-0.4882,-6.3466000000000005
21.92,-12.693200000000001,-1.4646000000000001,-6.8348
21.93,-12.205,0.0,-6.3466000000000005
21.94,-12.693200000000001,-0.4882,-6.8348
21.95,-12.693200000000001,-0.9764,-6.8348
21.96,-12.693200000000001,0.0,-6.8348
21.97,-12.693200000000001,-0.4882,-6.8348
21.98,-12.205,0.4882,-6.3466000000000005
21.990000000000002,-12.693200000000001,0.4882,-6.8348
22.0,-11.716800000000001,0.4882,-6.3466000000000005
22.01,-12.693200000000001,0.9764,-7.8112
22.02,-12.205,0.0,-7.8112
22.03,-12.205,0.0,-6.8348
22.04,-12.205,0.0,-7.323
22.05,-12.205,0.0,-7.323
22.06,-11.716800000000001,0.4882,-6.3466000000000005
22.07,-11.716800000000001,0.4882,-7.323
22.080000000000002,-11.716800000000001,1.4646000000000001,-7.8112
22.09,-11.2286,0.4882,-5.8584000000000005
22.1,-11.716800000000001,1.4646000000000001,-6.3466000000000005
22.11,-11.716800000000001,0.4882,-6.8348
22.12,-11.716800000000001,0.4882,-6.8348
22.13,-11.716800000000001,1.4646000000000001,-7.323
22.14,-11.716800000000001,1.4646000000000001,-7.8112
22.150000000000002,-11.716800000000001,1.4646000000000001,-6.3466000000000005
22.16,-11.716800000000001,0.9764,-6.3466000000000005
22.17,-11.2286,1.4646000000000001,-6.3466000000000005
22.18,-11.2286,2.4410000000000003,-7.323
22.19,-11.2286,0.4882,-6.8348
22.2,-10.740400000000001,0.9764,-6.8348
22.21,-11.716800000000001,1.4646000000000001,-6.8348
22.22,-11.716800000000001,1.4646000000000001,-6.8348
22.23,-10.740400000000001,1.9528,-7.8112
22.240000000000002,-11.2286,1.4646000000000001,-6.3466000000000005
22.25,-11.2286,1.9528,-6.8348
22.26,-11.2286,2.4410000000000003,-7.8112
22.27,-11.2286,1.9528,-7.8112
22.28,-10.740400000000001,1.9528,-7.323
22.29,-9.764000000000001,1.4646000000000001,-7.323
22.3,-11.2286,1.4646000000000001,-6.8348
22.31,-10.2522,2.4410000000000003,-7.8112
22.32,-10.2522,1.9528,-6.8348
22.330000000000002,-9.764000000000001,1.4646000000000001,-8.787600000000001
22.34,-10.740400000000001,2.4410000000000003,-7.8112
22.35,-9.764000000000001,2.4410000000000003,-7.8112
22.36,-10.740400000000001,0.9764,-7.8112
22.37,-9.764000000000001,2.9292000000000002,-8.2994
22.38,-10.2522,1.9528,-8.2994
22.39,-10.740400000000001,2.4410000000000003,-7.8112
22.400000000000002,-10.2522,2.4410000000000003,-8.2994
22.41,-10.2522,2.4410000000000003,-8.2994
22.42,-10.2522,2.9292000000000002,-8.2994
22.43,-9.2758,2.4410000000000003,-8.787600000000001
22.44,-8.2994,2.4410000000000003,-8.2994
22.45,-9.764000000000001,1.9528,-8.2994
22.46,-9.2758,1.9528,-9.2758
22.47,-10.740400000000001,1.4646000000000001,-8.2994
22.48,-8.787600000000001,1.4646000000000001,-8.787600000000001
22.490000000000002,-9.2758,2.4410000000000003,-8.787600000000001
22.5,-9.2758,1.9528,-8.2994
22.51,-9.2758,0.4882,-9.2758
22.52,-8.787600000000001,1.4646000000000001,-9.764000000000001
22.53,-9.2758,1.4646000000000001,-9.764000000000001
22.54,-8.787600000000001,1.9528,-8.2994
22.55,-9.764000000000001,1.4646000000000001,-8.787600000000001
22.56,-9.764000000000001,1.9528,-8.787600000000001
22.57,-9.764000000000001,1.4646000000000001,-9.2758
22.580000000000002,-8.2994,1.9528,-9.764000000000001
22.59,-9.764000000000001,1.4646000000000001,-10.740400000000001
22.6,-8.787600000000001,1.4646000000000001,-10.740400000000001
22.61,-8.787600000000001,1.4646000000000001,-9.2758
22.62,-9.2758,0.9764,-9.764000000000001
22.63,-8.787600000000001,1.4646000000000001,-10.740400000000001
22.64,-9.2758,1.4646000000000001,-9.2758
22.650000000000002,-8.2994,0.4882,-10.740400000000001
22.66,-9.2758,0.9764,-10.2522
22.67,-8.2994,0.9764,-10.2522
22.68,-8.787600000000001,0.9764,-11.2286
22.69,-9.2758,0.4882,-10.740400000000001
22.7,-9.2758,1.9528,-10.2522
22.71,-8.787600000000001,0.0,-10.740400000000001
22.72,-8.2994,0.9764,-9.764000000000001
22.73,-8.787600000000001,0.9764,-10.2522
22.740000000000002,-9.764000000000001,0.9764,-10.2522
22.75,-9.764000000000001,0.9764,-10.740400000000001
22.76,-8.787600000000001,0.9764,-10.740400000000001
22.77,-9.2758,0.4882,-11.2286
22.78,-8.787600000000001,0.4882,-10.740400000000001
22.79,-8.787600000000001,0.4882,-10.740400000000001
22.8,-9.2758,-0.4882,-10.740400000000001
22.81,-9.764000000000001,0.4882,-10.740400000000001
22.82,-9.764000000000001,0.9764,-10.740400000000001
22.830000000000002,-9.2758,-0.4882,-11.2286
22.84,-8.787600000000001,-0.4882,-11.716800000000001
22.85,-9.2758,0.0,-10.2522
22.86,-9.764000000000001,-0.9764,-10.740400000000001
22.87,-8.787600000000001,0.0,-11.2286
22.88,-9.2758,-0.9764,-11.2286
22.89,-8.787600000000001,-0.4882,-11.716800000000001
22.900000000000002,-9.2758,-0.9764,-9.764000000000001
22.91,-9.2758,-0.9764,-12.205
22.92,-10.2522,-1.4646000000000001,-11.2286
22.93,-9.764000000000001,-0.9764,-10.740400000000001
22.94,-9.2758,-1.9528,-9.764000000000001
22.95,-9.764000000000001,-0.9764,-10.740400000000001
22.96,-9.2758,-1.9528,-11.2286
22.97,-9.764000000000001,-1.4646000000000001,-10.740400000000001
22.98,-9.764000000000001,-0.9764,-11.2286
22.990000000000002,-9.764000000000001,-1.9528,-11.2286
23.0,-10.2522,-1.4646000000000001,-10.740400000000001
23.01,-8.787600000000001,-1.4646000000000001,-11.716800000000001
23.02,-9.2758,-1.9528,-10.740400000000001
23.03,-10.2522,-1.9528,-10.740400000000001
23.04,-10.2522,-1.4646000000000001,-11.2286
23.05,-9.764000000000001,-1.9528,-10.740400000000001
23.06,-9.764000000000001,-1.4646000000000001,-11.716800000000001
23.07,-9.764000000000001,-1.9528,-10.740400000000001
23.080000000000002,-10.2522,-2.4410000000000003,-10.740400000000001
23.09,-10.740400000000001,-1.4646000000000001,-10.740400000000001
23.1,-9.764000000000001,-2.4410000000000003,-11.2286
23.11,-10.740400000000001,-2.4410000000000003,-11.716800000000001
23.12,-10.2522,-3.4174,-11.716800000000001
23.13,-10.740400000000001,-2.4410000000000003,-10.2522
23.14,-10.2522,-2.4410000000000003,-11.2286
23.150000000000002,-10.2522,-3.4174,-10.740400000000001
23.16,-10.2522,-1.9528,-10.740400000000001
23.17,-11.716800000000001,-2.9292000000000002,-9.764000000000001
23.18,-11.716800000000001,-3.4174,-9.2758
23.19,-11.716800000000001,-3.4174,-10.2522
23.2,-10.2522,-2.4410000000000003,-10.2522
23.21,-10.740400000000001,-2.9292000000000002,-10.2522
23.22,-11.716800000000001,-3.4174,-10.2522
23.23,-10.740400000000001,-3.4174,-10.2522
23.240000000000002,-11.2286,-3.9056,-9.2758
23.25,-12.205,-3.4174,-9.764000000000001
23.26,-11.716800000000001,-2.4410000000000003,-10.740400000000001
23.27,-10.740400000000001,-2.9292000000000002,-10.2522
23.28,-11.2286,-3.4174,-9.764000000000001
23.29,-12.693200000000001,-2.9292000000000002,-10.2522
23.3,-11.2286,-3.9056,-9.2758
23.31,-11.716800000000001,-3.9056,-9.764000000000001
23.32,-11.716800000000001,-3.4174,-9.764000000000001
23.330000000000002,-12.205,-3.9056,-9.2758
23.34,-11.716800000000001,-3.4174,-9.2758
23.35,-12.205,-2.9292000000000002,-9.764000000000001
23.36,-12.693200000000001,-2.9292000000000002,-8.787600000000001
23.37,-12.205,-2.9292000000000002,-9.764000000000001
23.38,-12.205,-2.9292000000000002,-9.2758
23.39,-12.205,-2.9292000000000002,-8.787600000000001
23.400000000000002,-12.693200000000001,-2.9292000000000002,-9.2758
23.41,-12.693200000000001,-3.4174,-8.2994
23.42,-12.205,-2.9292000000000002,-9.2758
23.43,-12.693200000000001,-3.9056,-8.787600000000001
23.44,-11.716800000000001,-2.9292000000000002,-8.2994
23.45,-12.693200000000001,-2.9292000000000002,-8.2994
23.46,-12.693200000000001,-2.4410000000000003,-8.2994
23.47,-12.693200000000001,-2.9292000000000002,-7.8112
23.48,-12.693200000000001,-2.9292000000000002,-8.787600000000001
23.490000000000002,-12.693200000000001,-2.4410000000000003,-7.8112
23.5,-12.693200000000001,-3.4174,-7.8112
23.51,-13.1814,-2.4410000000000003,-7.323
23.52,-12.693200000000001,-3.4174,-7.8112
23.53,-13.1814,-2.4410000000000003,-8.2994
23.54,-13.1814,-2.9292000000000002,-7.323
23.55,-13.1814,-2.4410000000000003,-7.323
23.56,-13.1814,-3.4174,-8.2994
23.57,-12.693200000000001,-2.9292000000000002,-7.8112
23.580000000000002,-13.1814,-1.9528,-8.2994
23.59,-13.6696,-3.9056,-8.2994
23.6,-13.1814,-3.4174,-7.323
23.61,-13.1814,-2.9292000000000002,-7.323
23.62,-11.716800000000001,-2.4410000000000003,-7.323
23.63,-13.6696,-1.9528,-7.323
23.64,-13.1814,-2.4410000000000003,-7.323
23.650000000000002,-12.693200000000001,-1.4646000000000001,-5.8584000000000005
23.66,-13.1814,-2.4410000000000003,-6.3466000000000005
23.67,-14.1578,-1.9528,-7.323
23.68,-12.693200000000001,-0.9764,-6.3466000000000005
23.69,-13.6696,-1.4646000000000001,-6.3466000000000005
23.7,-12.205,-1.9528,-6.3466000000000005
23.71,-13.1814,-1.9528,-5.8584000000000005
23.72,-13.6696,-1.9528,-5.8584000000000005
23.73,-13.1814,-1.9528,-6.3466000000000005
23.740000000000002,-11.716800000000001,-0.9764,-5.8584000000000005
23.75,-13.1814,-0.9764,-6.3466000000000005
23.76,-13.1814,-1.4646000000000001,-6.3466000000000005
23.77,-12.205,-1.4646000000000001,-6.8348
23.78,-13.6696,-0.9764,-5.8584000000000005
23.79,-12.205,-0.9764,-5.8584000000000005
23.8,-12.693200000000001,-0.9764,-5.8584000000000005
23.81,-12.693200000000001,-1.4646000000000001,-6.3466000000000005
23.82,-13.1814,-1.4646000000000001,-5.3702000000000005
23.830000000000002,-13.1814,-0.4882,-5.8584000000000005
23.84,-12.693200000000001,-0.4882,-4.882000000000001
23.85,-12.693200000000001,-0.4882,-4.882000000000001
23.86,-13.1814,-0.4882,-5.3702000000000005
23.87,-12.693200000000001,0.4882,-5.3702000000000005
23.88,-12.693200000000001,0.0,-5.3702000000000005
23.89,-12.693200000000001,0.0,-4.882000000000001
23.900000000000002,-12.205,0.4882,-5.8584000000000005
23.91,-11.2286,0.0,-5.3702000000000005
23.92,-12.205,0.0,-4.882000000000001
23.93,-12.205,0.0,-4.882000000000001
23.94,-12.693200000000001,0.4882,-6.3466000000000005
23.95,-12.693200000000001,0.9764,-5.3702000000000005
23.96,-11.716800000000001,0.0,-5.3702000000000005
23.97,-12.693200000000001,0.4882,-5.3702000000000005
23.98,-11.716800000000001,0.4882,-4.882000000000001
23.990000000000002,-11.716800000000001,-0.4882,-4.882000000000001
24.0,-11.716800000000001,1.9528,-4.882000000000001
24.01,-12.693200000000001,0.9764,-5.8584000000000005
24.02,-11.716800000000001,0.4882,-4.882000000000001
24.03,-11.716800000000001,0.9764,-4.882000000000001
24.04,-12.693200000000001,0.9764,-4.882000000000001
24.05,-11.716800000000001,2.4410000000000003,-5.3702000000000005
24.060000000000002,-11.2286,1.9528,-5.8584000000000005
24.07,-10.740400000000001,1.4646000000000001,-5.3702000000000005
24.080000000000002,-11.2286,0.9764,-5.3702000000000005
24.09,-11.716800000000001,1.9528,-5.3702000000000005
24.1,-11.716800000000001,1.4646000000000001,-4.882000000000001
24.11,-11.716800000000001,0.9764,-5.3702000000000005
24.12,-10.740400000000001,2.4410000000000003,-5.3702000000000005
24.13,-11.716800000000001,1.4646000000000001,-6.3466000000000005
24.14,-10.740400000000001,2.4410000000000003,-5.8584000000000005
24.150000000000002,-11.716800000000001,1.9528,-5.3702000000000005
24.16,-11.2286,2.4410000000000003,-6.3466000000000005
24.17,-11.2286,1.4646000000000001,-5.8584000000000005
24.18,-10.740400000000001,2.4410000000000003,-5.3702000000000005
24.19,-10.2522,2.4410000000000003,-4.882000000000001
24.2,-10.740400000000001,1.9528,-5.8584000000000005
24.21,-10.740400000000001,1.4646000000000001,-5.8584000000000005
24.22,-10.2522,2.4410000000000003,-5.3702000000000005
24.23,-10.2522,1.9528,-5.8584000000000005
24.240000000000002,-10.2522,2.4410000000000003,-5.3702000000000005
24.25,-9.764000000000001,1.4646000000000001,-6.3466000000000005
24.26,-10.2522,2.9292000000000002,-5.8584000000000005
24.27,-10.740400000000001,2.4410000000000003,-6.8348
24.28,-10.2522,1.4646000000000001,-5.8584000000000005
24.29,-10.2522,1.9528,-6.3466000000000005
24.3,-9.764000000000001,3.4174,-6.8348
24.310000000000002,-10.2522,2.4410000000000003,-5.8584000000000005
24.32,-10.2522,2.4410000000000003,-5.8584000000000005
24.330000000000002,-9.2758,2.4410000000000003,-7.8112
24.34,-10.2522,2.4410000000000003,-6.8348
24.35,-9.764000000000001,2.9292000000000002,-6.3466000000000005
24.36,-8.787600000000001,2.9292000000000002,-6.8348
24.37,-9.764000000000001,2.4410000000000003,-7.323
24.38,-9.2758,2.9292000000000002,-6.8348
24.39,-9.2758,2.9292000000000002,-7.323
24.400000000000002,-9.2758,2.9292000000000002,-6.8348
24.41,-9.2758,2.9292000000000002,-7.8112
24.42,-8.787600000000001,2.9292000000000002,-7.323
24.43,-9.2758,2.4410000000000003,-7.323
24.44,-9.2758,3.9056,-7.8112
24.45,-9.2758,2.9292000000000002,-7.8112
24.46,-8.787600000000001,2.9292000000000002,-7.323
24.47,-9.764000000000001,2.9292000000000002,-7.323
24.48,-8.787600000000001,2.9292000000000002,-7.8112
24.490000000000002,-8.787600000000001,2.9292000000000002,-7.8112
24.5,-8.787600000000001,3.4174,-7.323
24.51,-8.2994,3.4174,-7.8112
24.52,-8.2994,2.9292000000000002,-8.2994
24.53,-8.787600000000001,3.4174,-8.787600000000001
24.54,-7.8112,2.9292000000000002,-8.2994
24.55,-7.8112,2.4410000000000003,-8.2994
24.560000000000002,-8.2994,2.4410000000000003,-8.2994
24.57,-7.8112,3.9056,-8.787600000000001
24.580000000000002,-8.2994,3.4174,-9.2758
24.59,-8.2994,3.4174,-8.787600000000001
24.6,-8.2994,2.9292000000000002,-8.787600000000001
24.61,-8.2994,2.9292000000000002,-9.2758
24.62,-7.8112,2.4410000000000003,-8.2994
24.63,-8.787600000000001,2.9292000000000002,-9.2758
24.64,-7.8112,2.9292000000000002,-9.764000000000001
24.650000000000002,-7.8112,2.4410000000000003,-9.2758
24.66,-8.2994,2.4410000000000003,-9.2758
24.67,-6.8348,2.9292000000000002,-9.764000000000001
24.68,-7.323,2.9292000000000002,-9.2758
24.69,-7.8112,2.9292000000000002,-10.2522
24.7,-7.323,2.9292000000000002,-10.2522
24.71,-7.8112,2.4410000000000003,-9.2758
24.72,-7.323,1.9528,-9.764000000000001
24.73,-8.2994,1.9528,-9.764000000000001
24.740000000000002,-6.8348,1.9528,-10.2522
24.75,-7.8112,2.4410000000000003,-10.2522
24.76,-6.3466000000000005,2.9292000000000002,-11.2286
24.77,-7.323,2.4410000000000003,-9.764000000000001
24.78,-6.3466000000000005,2.4410000000000003,-10.740400000000001
24.79,-7.8112,1.9528,-9.764000000000001
24.8,-7.323,2.4410000000000003,-10.740400000000001
24.810000000000002,-7.323,2.4410000000000003,-9.2758
24.82,-7.323,1.4646000000000001,-11.2286
24.830000000000002,-8.2994,1.4646000000000001,-11.2286
24.84,-7.323,0.4882,-11.2286
24.85,-7.8112,2.4410000000000003,-11.716800000000001
24.86,-7.323,1.4646000000000001,-11.2286
24.87,-6.8348,1.9528,-11.716800000000001
24.88,-7.323,0.9764,-11.716800000000001
24.89,-7.8112,0.9764,-10.740400000000001
24.900000000000002,-7.8112,0.9764,-11.2286
24.91,-6.3466000000000005,1.9528,-10.740400000000001
24.92,-6.8348,0.4882,-11.2286
24.93,-7.323,0.0,-11.2286
24.94,-6.3466000000000005,0.0,-11.716800000000001
24.95,-7.8112,0.9764,-11.2286
24.96,-7.323,0.4882,-10.740400000000001
24.97,-7.8112,0.4882,-12.205
24.98,-7.8112,0.0,-11.716800000000001
24.990000000000002,-8.2994,0.4882,-11.716800000000001
25.0,-7.8112,-0.4882,-12.693200000000001
25.01,-6.8348,-0.4882,-11.716800000000001
25.02,-6.8348,0.4882,-13.1814
25.03,-6.8348,0.0,-12.205
25.04,-6.3466000000000005,0.4882,-12.205
25.05,-7.8112,-0.4882,-13.1814
25.060000000000002,-7.323,-0.9764,-12.205
25.07,-7.323,-0.9764,-12.205
25.080000000000002,-7.8112,-0.4882,-12.205
25.09,-7.323,-0.9764,-12.205
25.1,-7.8112,-0.4882,-12.205
25.11,-7.8112,-2.4410000000000003,-11.716800000000001
25.12,-7.323,-1.4646000000000001,-12.205
25.13,-7.8112,-0.9764,-12.693200000000001
25.14,-7.8112,-0.9764,-12.205
25.150000000000002,-7.8112,-1.9528,-12.205
25.16,-8.787600000000001,-1.4646000000000001,-12.693200000000001
25.17,-7.8112,-1.9528,-11.716800000000001
25.18,-7.8112,-2.9292000000000002,-12.693200000000001
25.19,-8.2994,-2.9292000000000002,-11.716800000000001
25.2,-8.2994,-2.9292000000000002,-12.693200000000001
25.21,-8.2994,-1.9528,-12.693200000000001
25.22,-7.323,-2.4410000000000003,-12.205
25.23,-7.8112,-1.9528,-12.693200000000001
25.240000000000002,-8.2994,-2.4410000000000003,-12.205
25.25,-7.8112,-3.4174,-12.205
25.26,-8.2994,-2.9292000000000002,-12.693200000000001
25.27,-8.2994,-2.4410000000000003,-11.716800000000001
25.28,-8.787600000000001,-3.4174,-12.205
25.29,-8.2994,-2.9292000000000002,-11.716800000000001
25.3,-8.2994,-3.4174,-12.205
25.310000000000002,-8.787600000000001,-3.9056,-12.205
25.32,-8.2994,-3.9056,-12.693200000000001
25.330000000000002,-8.787600000000001,-3.4174,-11.716800000000001
25.34,-8.787600000000001,-2.9292000000000002,-12.205
25.35,-8.2994,-3.4174,-12.205
25.36,-8.787600000000001,-4.393800000000001,-12.205
25.37,-9.2758,-3.9056,-12.205
25.38,-8.2994,-4.393800000000001,-12.205
25.39,-8.787600000000001,-4.882000000000001,-11.716800000000001
25.400000000000002,-8.787600000000001,-3.9056,-11.2286
25.41,-9.2758,-4.882000000000001,-12.205
25.42,-9.2758,-4.882000000000001,-11.716800000000001
25.43,-9.2758,-5.3702000000000005,-11.2286
25.44,-8.787600000000001,-4.882000000000001,-12.205
25.45,-9.2758,-5.3702000000000005,-12.205
25.46,-9.764000000000001,-3.9056,-12.693200000000001
25.47,-9.764000000000001,-5.3702000000000005,-10.740400000000001
25.48,-9.2758,-4.882000000000001,-10.740400000000001
25.490000000000002,-9.2758,-5.3702000000000005,-11.716800000000001
25.5,-10.740400000000001,-5.8584000000000005,-11.2286
25.51,-9.764000000000001,-4.882000000000001,-11.716800000000001
25.52,-9.764000000000001,-5.3702000000000005,-11.716800000000001
25.53,-9.764000000000001,-5.3702000000000005,-11.2286
25.54,-10.2522,-5.3702000000000005,-10.2522
25.55,-10.740400000000001,-4.882000000000001,-11.2286
25.560000000000002,-10.2522,-6.3466000000000005,-11.2286
25.57,-10.2522,-6.3466000000000005,-10.2522
25.580000000000002,-9.764000000000001,-6.3466000000000005,-10.2522
25.59,-10.740400000000001,-6.8348,-11.2286
25.6,-10.2522,-5.8584000000000005,-11.2286
25.61,-9.764000000000001,-5.3702000000000005,-10.2522
25.62,-10.740400000000001,-6.3466000000000005,-9.764000000000001
25.63,-10.2522,-6.3466000000000005,-10.2522
25.64,-11.2286,-6.8348,-10.740400000000001
25.650000000000002,-11.2286,-5.8584000000000005,-10.2522
25.66,-10.2522,-6.3466000000000005,-9.764000000000001
25.67,-10.740400000000001,-5.8584000000000005,-9.2758
25.68,-12.205,-5.8584000000000005,-9.2758
25.69,-10.2522,-5.8584000000000005,-10.2522
25.7,-11.2286,-7.323,-9.2758
25.71,-11.2286,-6.3466000000000005,-9.2758
25.72,-12.205,-6.3466000000000005,-9.764000000000001
25.73,-11.716800000000001,-4.882000000000001,-9.2758
25.740000000000002,-10.740400000000001,-6.8348,-8.787600000000001
25.75,-11.716800000000001,-6.3466000000000005,-9.2758
25.76,-11.2286,-5.8584000000000005,-9.764000000000001
25.77,-11.2286,-6.8348,-8.787600000000001
25.78,-12.205,-6.8348,-9.764000000000001
25.79,-11.716800000000001,-7.323,-8.787600000000001
25.8,-12.205,-6.3466000000000005,-8.787600000000001
25.810000000000002,-12.693200000000001,-6.3466000000000005,-8.2994
25.82,-12.205,-6.8348,-8.787600000000001
25.830000000000002,-12.205,-6.3466000000000005,-8.2994
25.84,-11.716800000000001,-6.3466000000000005,-7.8112
25.85,-12.205,-7.323,-7.8112
25.86,-12.693200000000001,-6.8348,-7.323
25.87,-13.1814,-6.3466000000000005,-6.8348
25.88,-12.205,-6.8348,-8.787600000000001
25.89,-13.1814,-6.8348,-7.323
25.900000000000002,-13.1814,-5.8584000000000005,-7.8112
25.91,-12.205,-6.8348,-7.323
25.92,-12.693200000000001,-5.8584000000000005,-6.3466000000000005
25.93,-12.693200000000001,-7.323,-7.323
25.94,-12.693200000000001,-7.323,-5.8584000000000005
25.95,-13.1814,-6.8348,-6.8348
25.96,-13.1814,-5.3702000000000005,-6.3466000000000005
25.97,-13.6696,-7.323,-6.3466000000000005
25.98,-13.1814,-5.8584000000000005,-6.3466000000000005
25.990000000000002,-12.693200000000001,-6.3466000000000005,-6.3466000000000005
26.0,-13.1814,-6.8348,-5.8584000000000005
26.01,-13.6696,-6.3466000000000005,-5.3702000000000005
26.02,-13.1814,-6.8348,-6.3466000000000005
26.03,-13.1814,-6.8348,-4.393800000000001
26.04,-13.1814,-6.3466000000000005,-5.3702000000000005
26.05,-13.1814,-6.3466000000000005,-5.3702000000000005
26.060000000000002,-13.6696,-5.8584000000000005,-6.3466000000000005
26.07,-13.1814,-5.8584000000000005,-3.9056
26.080000000000002,-13.6696,-4.882000000000001,-3.9056
26.09,-12.693200000000001,-6.3466000000000005,-4.882000000000001
26.1,-12.693200000000001,-6.8348,-4.393800000000001
26.11,-13.1814,-4.882000000000001,-5.3702000000000005
26.12,-13.1814,-5.3702000000000005,-3.9056
26.13,-13.6696,-4.882000000000001,-3.9056
26.14,-14.1578,-4.882000000000001,-4.393800000000001
26.150000000000002,-13.6696,-5.3702000000000005,-4.393800000000001
26.16,-13.6696,-5.3702000000000005,-3.4174
26.17,-12.693200000000001,-4.393800000000001,-4.393800000000001
26.18,-13.1814,-5.8584000000000005,-3.9056
26.19,-14.1578,-4.393800000000001,-3.4174
26.2,-13.1814,-4.393800000000001,-3.4174
26.21,-13.6696,-4.393800000000001,-2.9292000000000002
26.22,-13.6696,-5.3702000000000005,-2.9292000000000002
26.23,-13.1814,-4.393800000000001,-3.4174
26.240000000000002,-13.1814,-3.4174,-1.9528
26.25,-13.6696,-4.882000000000001,-2.4410000000000003
26.26,-12.693200000000001,-3.9056,-2.4410000000000003
26.27,-12.693200000000001,-4.393800000000001,-2.9292000000000002
26.28,-14.1578,-3.9056,-2.9292000000000002
26.29,-13.1814,-2.9292000000000002,-2.4410000000000003
26.3,-13.6696,-4.393800000000001,-2.9292000000000002
26.310000000000002,-13.6696,-3.4174,-2.4410000000000003
26.32,-13.6696,-2.9292000000000002,-1.9528
26.330000000000002,-12.693200000000001,-3.9056,-2.4410000000000003
26.34,-12.693200000000001,-2.9292000000000002,-1.4646000000000001
26.35,-13.6696,-4.393800000000001,-1.9528
26.36,-12.693200000000001,-2.9292000000000002,-1.9528
26.37,-12.693200000000001,-3.4174,-1.9528
26.38,-13.1814,-2.4410000000000003,-1.9528
26.39,-13.1814,-2.4410000000000003,-1.9528
26.400000000000002,-12.693200000000001,-1.9528,-1.4646000000000001
26.41,-13.1814,-2.9292000000000002,-0.9764
26.42,-12.693200000000001,-2.4410000000000003,-1.9528
26.43,-12.693200000000001,-1.9528,-0.9764
26.44,-12.205,-0.9764,-2.4410000000000003
26.45,-12.693200000000001,-1.4646000000000001,-1.4646000000000001
26.46,-12.205,-1.9528,-0.9764
26.47,-12.205,-1.9528,-1.4646000000000001
26.48,-12.205,-0.9764,-0.4882
26.490000000000002,-12.205,-1.9528,-1.4646000000000001
26.5,-12.693200000000001,-1.4646000000000001,-0.9764
26.51,-13.1814,-1.4646000000000001,-0.9764
26.52,-13.1814,-0.9764,-0.9764
26.53,-12.693200000000001,-0.9764,-1.4646000000000001
26.54,-12.205,0.0,-0.9764
26.55,-11.2286,-0.9764,-0.9764
26.560000000000002,-12.693200000000001,0.0,-0.9764
26.57,-11.716800000000001,-0.4882,0.4882
26.580000000000002,-12.205,0.0,0.0
26.59,-11.2286,-0.4882,0.4882
26.6,-10.740400000000001,0.0,-0.9764
26.61,-11.2286,0.0,-0.4882
26.62,-11.716800000000001,0.4882,-0.4882
26.63,-11.2286,0.4882,-0.9764
26.64,-11.716800000000001,0.0,-0.9764
26.650000000000002,-10.740400000000001,0.9764,-1.4646000000000001
26.66,-10.740400000000001,1.4646000000000001,-0.4882
26.67,-11.2286,0.4882,0.0
26.68,-11.2286,0.9764,-0.4882
26.69,-10.2522,0.4882,0.0
26.7,-10.740400000000001,1.4646000000000001,-0.9764
26.71,-10.2522,1.4646000000000001,0.0
26.72,-10.740400000000001,1.4646000000000001,-0.4882
26.73,-10.2522,1.9528,0.4882
26.740000000000002,-10.2522,1.9528,-0.4882
26.75,-9.764000000000001,2.4410000000000003,0.0
26.76,-9.764000000000001,1.9528,-0.9764
26.77,-10.2522,2.4410000000000003,0.4882
26.78,-10.2522,0.9764,-0.4882
26.79,-8.787600000000001,2.9292000000000002,-0.9764
26.8,-8.787600000000001,1.9528,-1.9528
26.810000000000002,-9.2758,2.4410000000000003,-1.4646000000000001
26.82,-9.764000000000001,2.4410000000000003,-0.4882
26.830000000000002,-8.787600000000001,1.9528,-0.4882
26.84,-8.787600000000001,3.4174,-0.4882
26.85,-8.2994,2.9292000000000002,0.0
26.86,-8.2994,2.4410000000000003,-0.9764
26.87,-8.787600000000001,2.4410000000000003,-0.4882
26.88,-8.787600000000001,2.4410000000000003,-1.4646000000000001
26.89,-7.8112,2.4410000000000003,-1.9528
26.900000000000002,-7.323,2.9292000000000002,-0.9764
26.91,-8.787600000000001,3.4174,-0.9764
26.92,-7.8112,3.9056,-0.9764
26.93,-7.8112,3.9056,-0.9764
26.94,-8.2994,3.9056,-1.4646000000000001
26.95,-7.323,3.9056,-0.9764
26.96,-8.2994,4.393800000000001,-1.9528
26.97,-7.8112,3.4174,-1.4646000000000001
26.98,-7.323,3.4174,-1.4646000000000001
26.990000000000002,-6.8348,3.9056,-0.9764
27.0,-7.323,3.9056,-1.4646000000000001
27.01,-6.8348,4.393800000000001,-1.9528
27.02,-6.3466000000000005,3.9056,-0.9764
27.03,-5.8584000000000005,4.882000000000001,-1.4646000000000001
27.04,-5.8584000000000005,4.882000000000001,-1.9528
27.05,-6.3466000000000005,4.882000000000001,-1.9528
27.060000000000002,-6.3466000000000005,4.393800000000001,-1.9528
27.07,-6.3466000000000005,3.9056,-1.9528
27.080000000000002,-6.3466000000000005,3.9056,-3.9056
27.09,-6.3466000000000005,4.393800000000001,-2.9292000000000002
27.1,-5.8584000000000005,4.393800000000001,-2.4410000000000003
27.11,-5.8584000000000005,4.393800000000001,-2.9292000000000002
27.12,-5.8584000000000005,4.393800000000001,-2.9292000000000002
27.13,-4.882000000000001,4.882000000000001,-2.4410000000000003
27.14,-5.3702000000000005,5.3702000000000005,-2.4410000000000003
27.150000000000002,-5.8584000000000005,4.882000000000001,-3.4174
27.16,-5.3702000000000005,4.393800000000001,-2.9292000000000002
27.17,-4.393800000000001,4.882000000000001,-3.4174
27.18,-5.3702000000000005,5.8584000000000005,-3.4174
27.19,-4.882000000000001,5.3702000000000005,-2.9292000000000002
27.2,-4.393800000000001,4.882000000000001,-2.9292000000000002
27.21,-4.882000000000001,4.882000000000001,-3.4174
27.22,-4.393800000000001,5.8584000000000005,-3.9056
27.23,-4.393800000000001,4.393800000000001,-4.393800000000001
27.240000000000002,-3.9056,4.882000000000001,-3.4174
